time,IMU1.loc_acc_x,IMU1.loc_acc_y,IMU1.loc_acc_z,IMU2.loc_acc_x,IMU2.loc_acc_y,IMU2.loc_acc_z,IMU1.gyro_x,IMU1.gyro_y,IMU1.gyro_z,IMU2.gyro_x,IMU2.gyro_y,IMU2.gyro_z,IMU1.quat_i,IMU1.quat_j,IMU1.quat_k,IMU1.quat_w,IMU2.quat_i,IMU2.quat_j,IMU2.quat_k,IMU2.quat_w,IMU1.roll_x,IMU1.pitch_y,IMU1.yaw_z,IMU2.roll_x,IMU2.pitch_y,IMU2.yaw_z,IMU1.localVelocity_x,IMU1.localVelocity_y,IMU1.localVelocity_z,IMU2.localVelocity_x,IMU2.localVelocity_y,IMU2.localVelocity_z,IMU1.globalVelocity_x,IMU1.globalVelocity_y,IMU1.globalVelocity_z,IMU2.globalVelocity_x,IMU2.globalVelocity_y,IMU2.globalVelocity_z,mcl_sync,label_sync
1677190280948000,-0.527358,7.590263,-7.171025,0.000000,0.000000,-9.804654,0.314407,-0.036869,-0.074562,0.000000,0.000000,0.000000,0.098730,0.006164,-0.000611,0.995323,0.000000,0.000000,0.000000,1.000119,0.197830,0.012391,0.000000,0.000000,0.000000,0.000000,0.002863,-0.001867,0.005146,0.027205,-0.066009,-0.004617,-0.008619,-0.020608,-0.008412,0.266128,-0.106813,-0.165878,0,0
1677190280968000,0.234678,5.761674,-6.657772,-0.192038,1.719544,-9.668880,0.257720,0.036354,-0.160951,-0.027788,0.003324,-0.004406,0.188953,0.004895,-0.000942,0.982194,-0.093410,-0.010343,-0.000971,0.995794,0.380275,0.009972,0.000000,-0.187143,-0.020783,-0.000001,0.009147,0.094451,-0.093622,0.012196,0.003063,-0.133704,-0.004491,0.127978,-0.086923,0.269071,-0.100261,-0.364818,0,0
1677190280988000,0.103445,4.272416,-6.007297,2.121840,-14.592936,-14.849634,0.213433,0.092307,-0.168918,-5.208648,0.532963,-0.889820,0.268043,0.005858,-0.001629,0.963593,-0.238755,-0.019616,-0.004818,0.971226,0.542827,0.012164,0.000000,-0.482419,-0.040414,0.000009,0.012804,0.160993,-0.179396,0.043631,-0.253875,-0.366265,-0.002896,0.255364,-0.143273,0.319374,-0.487839,-0.493337,0,0
1677190281008000,-0.345533,3.090467,-5.725019,1.883769,-1.360091,-9.747277,0.148494,0.089355,-0.099072,-3.283059,-0.138183,-0.885036,0.338012,0.011812,-0.004242,0.941254,-0.354966,-0.054611,-0.020770,0.933372,0.689767,0.025108,-0.000001,-0.727227,-0.116957,-0.000001,0.007476,0.203935,-0.259593,0.070493,-0.245951,-0.496732,-0.010794,0.368064,-0.189663,0.374442,-0.629008,-0.618195,0,0
1677190281028000,-0.225882,2.331529,-4.700959,1.606136,3.559654,-8.096442,0.252202,0.018078,-0.039444,-3.960906,-0.595266,-0.927454,0.396211,0.015074,-0.006505,0.918195,-0.456781,-0.112556,-0.058378,0.880847,0.814989,0.032842,-0.000001,-0.957304,-0.254355,-0.000018,0.004532,0.231768,-0.319429,0.092012,-0.139466,-0.594227,-0.016073,0.460626,-0.217626,0.446425,-0.711655,-0.759259,0,0
1677190281047999,-0.052241,1.936684,-4.061380,1.834517,0.385609,-4.597580,0.253891,-0.070713,-0.027689,-4.084058,-0.783924,-1.188683,0.445460,0.015387,-0.007656,0.895312,-0.536669,-0.145749,-0.094707,0.825995,0.923617,0.034379,-0.000001,-1.152838,-0.349500,-0.000019,0.005051,0.251804,-0.366647,0.118328,-0.096331,-0.621882,-0.017498,0.540944,-0.233220,0.498930,-0.783866,-0.790961,0,0
1677190281067999,0.198018,1.353005,-3.587396,1.597679,-1.305653,-3.304392,0.220684,-0.081253,-0.058115,-3.196271,-0.676792,-1.462915,0.486992,0.013285,-0.007407,0.873443,-0.594987,-0.164155,-0.125721,0.776937,1.017501,0.030426,-0.000000,-1.307497,-0.416628,-0.000016,0.010562,0.260294,-0.404608,0.140157,-0.086926,-0.623902,-0.013747,0.608368,-0.245571,0.527788,-0.845816,-0.773274,0,0
1677190281087999,0.174359,0.819473,-2.360497,0.636213,-5.629724,-2.797394,0.370496,-0.061727,-0.046807,-2.313299,-0.569801,-1.539475,0.516362,0.011479,-0.006921,0.856424,-0.639108,-0.162570,-0.140664,0.738677,1.085379,0.026812,-0.000000,-1.426855,-0.433414,-0.000012,0.015583,0.258271,-0.418307,0.143026,-0.163942,-0.616101,-0.010223,0.649935,-0.250736,0.498831,-0.908725,-0.676651,0,0
1677190281107999,0.106969,0.704265,-1.888790,-0.098305,-14.694715,-3.251853,0.656252,-0.062059,0.000283,0.396639,-0.596601,-1.480775,0.543131,0.009969,-0.006448,0.839723,-0.656681,-0.152886,-0.138368,0.725608,1.148485,0.023748,-0.000000,-1.471428,-0.415446,-0.000008,0.019238,0.254129,-0.422894,0.131492,-0.422233,-0.617798,-0.007907,0.682331,-0.250956,0.384576,-0.994044,-0.418343,0,0
1677190281128000,-0.287435,0.828814,-1.298330,2.417020,-15.381109,-3.588125,0.737154,-0.081062,0.102915,5.358517,-0.588252,-1.277881,0.564768,0.011118,-0.007609,0.825297,-0.632325,-0.156974,-0.132864,0.747096,1.200492,0.026949,-0.000000,-1.405075,-0.414330,-0.000008,0.014984,0.252691,-0.416044,0.170571,-0.694265,-0.626715,-0.013251,0.704705,-0.242274,0.314458,-1.107043,-0.134565,0,0
1677190281148000,-0.436001,0.858024,-1.378879,2.329216,-6.628454,-7.608457,0.264543,-0.031969,0.162008,9.687395,-0.514732,-1.013195,0.581737,0.013153,-0.009408,0.813372,-0.592427,-0.173799,-0.132765,0.775586,1.241972,0.032348,-0.000000,-1.304960,-0.441061,-0.000016,0.007735,0.252078,-0.411223,0.208216,-0.791282,-0.716619,-0.021490,0.728517,-0.232180,0.322082,-1.280127,-0.037784,0,0
1677190281168000,-0.551430,0.697362,-1.095580,0.731650,4.186135,-7.228320,0.022235,0.000422,0.141888,10.445236,-0.339990,-0.622910,0.593121,0.016467,-0.012133,0.805008,-0.554752,-0.223137,-0.157469,0.786163,1.270221,0.040917,-0.000000,-1.229432,-0.553369,-0.000026,-0.001849,0.248518,-0.401199,0.214247,-0.672081,-0.799583,-0.031991,0.745747,-0.222413,0.404454,-1.379687,-0.141016,0,0
1677190281188000,0.159858,-0.135115,-1.427791,0.208693,13.356993,-3.737727,-0.354824,-0.025536,0.086363,7.083761,-0.265361,-0.086552,0.602503,0.014102,-0.010647,0.798076,-0.456393,-0.309768,-0.173175,0.816298,1.293553,0.035346,-0.000000,-1.020286,-0.725886,0.000037,0.002764,0.228601,-0.398325,0.210174,-0.369569,-0.813478,-0.028925,0.764642,-0.230440,0.587585,-1.294901,-0.340405,0,0
1677190281208000,0.281002,0.052742,-0.681849,2.422866,6.888182,-0.449637,-0.219125,-0.053420,-0.001726,0.527495,-0.391516,0.382189,0.606538,0.011393,-0.008691,0.795079,-0.404556,-0.366918,-0.181451,0.818010,1.303604,0.028663,0.000000,-0.919019,-0.843688,0.000031,0.009770,0.212756,-0.381081,0.250753,-0.196568,-0.762432,-0.023142,0.770249,-0.230681,0.708746,-1.209881,-0.383240,0,0
1677190281228000,-0.385290,0.089152,-0.705963,2.282128,-7.649339,2.796976,0.057275,-0.060741,-0.062971,-2.174779,-0.094520,0.891644,0.613349,0.015226,-0.011825,0.789732,-0.450990,-0.331309,-0.184919,0.808052,1.320925,0.038565,0.000000,-1.018463,-0.778515,-0.000020,0.003416,0.197979,-0.364907,0.288898,-0.314482,-0.647349,-0.030672,0.776548,-0.229637,0.632352,-1.234053,-0.240144,0,0
1677190281248000,-0.921800,0.174375,-0.475545,-1.115408,-7.044101,-0.303467,0.265518,-0.079418,-0.021584,-1.257750,0.265642,1.189446,0.620051,0.023036,-0.018215,0.784169,-0.501282,-0.283998,-0.178448,0.797840,1.338343,0.058751,0.000000,-1.122312,-0.684228,-0.000024,-0.013704,0.185267,-0.344749,0.259486,-0.420483,-0.595242,-0.048767,0.778789,-0.224839,0.539683,-1.292143,-0.160499,0,0
1677190281268000,-0.721295,0.076301,-0.685349,-1.563982,-2.129102,2.653057,0.357085,-0.119478,0.080666,-0.518262,0.311593,1.134606,0.629155,0.028039,-0.022715,0.776601,-0.501832,-0.252178,-0.155699,0.812782,1.362028,0.072195,0.000000,-1.106577,-0.601890,0.000004,-0.026851,0.170977,-0.329449,0.221509,-0.428403,-0.485037,-0.063015,0.784700,-0.222623,0.482084,-1.255289,-0.129825,0,0
1677190281287999,-0.064225,-0.130779,-0.625887,0.214461,-4.858320,5.729022,0.592185,-0.142190,0.222845,-0.489586,0.313688,1.083309,0.639840,0.026126,-0.021768,0.767917,-0.495673,-0.225556,-0.135034,0.827934,1.389582,0.068034,0.000000,-1.079189,-0.532114,0.000005,-0.026898,0.152946,-0.313652,0.219516,-0.491151,-0.314412,-0.064386,0.788731,-0.224827,0.418115,-1.191712,-0.009807,0,0
1677190281307999,0.431493,-0.404107,-0.703570,-2.291185,5.209202,-2.582441,0.370808,-0.232229,0.346951,-0.658317,0.133942,0.807783,0.648903,0.018820,-0.016055,0.760633,-0.497022,-0.245568,-0.149033,0.818971,1.412838,0.049487,0.000001,-1.091210,-0.582810,-0.000001,-0.017071,0.129870,-0.300134,0.167834,-0.352816,-0.311174,-0.056034,0.793550,-0.232905,0.447079,-1.180978,-0.134712,0,0
1677190281327999,0.695407,0.049799,-0.184799,-1.029441,5.516415,-1.674505,-0.040151,-0.334858,0.312559,-1.301711,0.043597,0.522369,0.650138,0.009789,-0.008374,0.759870,-0.482727,-0.282791,-0.168155,0.811799,1.415706,0.025768,0.000001,-1.073264,-0.670637,0.000008,-0.002011,0.116309,-0.276993,0.141821,-0.208627,-0.290993,-0.041882,0.789557,-0.230311,0.504399,-1.149284,-0.238607,0,0
1677190281347999,0.333373,0.823741,0.132406,-0.631475,6.398572,2.370734,-0.744155,-0.323667,0.165262,-2.608217,0.330765,0.089491,0.643344,0.005258,-0.004417,0.765707,-0.435310,-0.310413,-0.162900,0.829406,1.397792,0.013737,0.000001,-0.966998,-0.716488,0.000042,0.005763,0.118681,-0.248287,0.124206,-0.047106,-0.191175,-0.034749,0.781996,-0.211174,0.549655,-1.029157,-0.308647,0,0
1677190281367999,-0.112319,-0.327466,0.318617,-1.053899,8.325026,3.270194,-0.510019,-0.252336,0.124346,-4.801794,0.992059,-0.231870,0.635437,0.004705,-0.003870,0.772288,-0.386496,-0.333652,-0.152326,0.846415,1.377219,0.012186,0.000001,-0.857063,-0.751264,0.000067,0.004575,0.098496,-0.216658,0.098589,0.152612,-0.074685,-0.036821,0.766695,-0.213795,0.594220,-0.862297,-0.386325,0,0
1677190281388000,-0.588136,-0.329019,0.020528,-1.065040,-2.825507,-1.649017,-0.195293,-0.175381,0.166014,-6.401660,1.405156,-0.183417,0.632856,0.007863,-0.006426,0.774360,-0.472568,-0.298032,-0.173613,0.811266,1.370598,0.020312,0.000001,-1.055409,-0.704503,-0.000016,-0.006178,0.078762,-0.191815,0.073200,0.128970,-0.057940,-0.048474,0.757204,-0.217366,0.560082,-0.910496,-0.377680,0,0
1677190281408000,-0.293655,0.192499,-0.490106,-1.441736,-6.707964,-4.623602,-0.041740,-0.104273,0.168392,-5.100556,1.453767,-0.249166,0.636569,0.008425,-0.006953,0.771300,-0.558238,-0.257110,-0.187243,0.766584,1.380219,0.021849,0.000000,-1.259350,-0.647563,-0.000023,-0.011093,0.069951,-0.178025,0.040733,0.027311,-0.102087,-0.054067,0.759786,-0.212756,0.480622,-1.031339,-0.318485,0,0
1677190281428000,-0.098477,0.580577,0.136630,0.084360,-1.092334,-3.882155,0.103518,-0.034581,0.104555,-4.517270,1.303755,-0.164927,0.637341,0.008051,-0.006658,0.770669,-0.622810,-0.238532,-0.207519,0.715915,1.382213,0.020898,0.000000,-1.432399,-0.643534,-0.000014,-0.012156,0.069404,-0.152558,0.039245,0.037582,-0.132843,-0.055551,0.751518,-0.198233,0.478894,-1.102939,-0.311400,0,0
1677190281448000,-0.126056,0.482400,0.128297,-0.170195,-5.798146,-4.040087,0.066964,-0.045173,0.060122,-3.567528,0.790227,-0.139012,0.637683,0.008289,-0.006861,0.770382,-0.674509,-0.210420,-0.209951,0.676036,1.383107,0.021524,0.000000,-1.568950,-0.603747,-0.000010,-0.013824,0.067405,-0.128128,0.033125,-0.046661,-0.168226,-0.057621,0.743044,-0.185653,0.413867,-1.175707,-0.220649,0,0
1677190281468000,-0.341530,0.072213,-0.302700,-1.230368,-2.429781,-5.482061,-0.041222,-0.071737,0.068749,-1.249498,0.266750,-0.329851,0.639688,0.010175,-0.008468,0.768679,-0.716657,-0.188245,-0.211606,0.637573,1.388367,0.026480,0.000000,-1.687819,-0.574407,-0.000017,-0.019856,0.057723,-0.113199,0.006262,-0.063949,-0.233945,-0.064205,0.741513,-0.182576,0.363576,-1.270675,-0.185423,0,0
1677190281488000,-0.175713,-0.192940,-0.355372,-2.017521,1.324964,-4.197192,-0.132207,-0.083788,0.126179,0.300224,-0.183007,-0.883863,0.640952,0.010326,-0.008622,0.767622,-0.749336,-0.174744,-0.218038,0.600590,1.391662,0.026908,0.000000,-1.790614,-0.566481,-0.000022,-0.022628,0.043262,-0.100213,-0.035883,-0.006565,-0.275486,-0.067619,0.740080,-0.184964,0.337145,-1.350127,-0.216125,0,0
1677190281508000,0.290576,-0.539293,-0.513377,-2.567700,1.058043,-2.649783,-0.100314,-0.146550,0.139963,1.440306,-0.562582,-1.652381,0.643404,0.006527,-0.005485,0.765639,-0.765959,-0.166494,-0.219471,0.581103,1.397969,0.017054,0.000001,-1.843843,-0.558261,-0.000018,-0.016131,0.022405,-0.091282,-0.088572,0.045044,-0.287618,-0.061784,0.740609,-0.194869,0.300398,-1.398643,-0.251153,0,0
1677190281528000,0.770348,-0.279204,-0.136309,-2.069185,-4.063879,-1.937640,0.003111,-0.132498,0.046791,3.435352,-0.748522,-2.243039,0.644118,-0.000078,0.000066,0.765086,-0.753482,-0.167950,-0.210971,0.599852,1.399775,-0.000206,0.000001,-1.797176,-0.546168,-0.000011,-0.000096,0.007283,-0.075709,-0.130833,-0.006230,-0.287061,-0.046141,0.734626,-0.198243,0.223006,-1.409996,-0.200185,0,0
1677190281547999,0.548683,-0.115462,-0.110295,-1.602315,-3.229305,-3.484724,-0.016033,-0.070383,-0.056226,6.106995,-0.717963,-2.366322,0.644642,-0.003838,0.003236,0.764628,-0.729402,-0.176763,-0.205170,0.628444,1.401165,-0.010043,0.000000,-1.719581,-0.548577,-0.000016,0.011448,-0.004028,-0.060514,-0.163303,-0.041267,-0.319009,-0.034907,0.728702,-0.198187,0.160636,-1.461203,-0.156248,0,0
1677190281567999,-0.064794,-0.150083,0.277727,-0.286466,5.836016,-1.039117,-0.036093,-0.120438,-0.009617,6.220767,-0.639830,-1.662157,0.642080,-0.003473,0.002909,0.766783,-0.690723,-0.227190,-0.244523,0.641790,1.394471,-0.009062,0.000001,-1.644714,-0.680795,-0.000019,0.010664,-0.015495,-0.038457,-0.169004,0.104540,-0.303615,-0.035950,0.715010,-0.197580,0.232143,-1.482349,-0.251812,0,0
1677190281587999,-0.721098,-0.062876,0.207063,1.495541,-0.399271,3.116901,-0.073822,-0.234436,0.177867,3.422711,-0.642191,-0.315679,0.639841,-0.000151,0.000126,0.768666,-0.644691,-0.250096,-0.236080,0.682946,1.388620,-0.000393,0.000001,-1.513612,-0.702335,0.000013,-0.003306,-0.024683,-0.018707,-0.138618,0.125172,-0.206675,-0.050138,0.703025,-0.195468,0.251228,-1.412460,-0.226337,0,0
1677190281607999,-0.835146,0.458717,0.113794,2.416772,-7.389693,2.717611,-0.069416,-0.260766,0.337927,1.399630,-0.328607,0.971645,0.639010,0.002167,-0.001799,0.769352,-0.632499,-0.238383,-0.213718,0.705490,1.386464,0.005634,0.000001,-1.462142,-0.651910,0.000003,-0.019615,-0.022905,-0.001711,-0.089366,0.005519,-0.119293,-0.066553,0.694798,-0.183331,0.200708,-1.366420,-0.078183,0,0
1677190281628000,-0.459775,1.297484,0.274001,1.250588,-6.629639,3.456151,0.050891,-0.211565,0.224392,1.356122,0.605337,1.570957,0.639260,0.002672,-0.002220,0.769141,-0.614701,-0.220215,-0.184203,0.734852,1.387118,0.006949,0.000001,-1.393550,-0.582496,0.000010,-0.028477,-0.003821,0.017608,-0.063002,-0.099415,-0.018707,-0.075331,0.686495,-0.154142,0.146888,-1.313749,0.052098,0,0
1677190281648000,-0.337632,1.178131,0.354998,-1.024337,3.650128,1.023523,0.031669,-0.080605,-0.032416,1.481757,1.402868,1.423317,0.638694,0.004880,-0.004050,0.769592,-0.573802,-0.224051,-0.166939,0.770052,1.385671,0.012684,0.000000,-1.281119,-0.566453,0.000022,-0.034955,0.013403,0.037677,-0.081707,0.000762,0.031668,-0.081540,0.676212,-0.126976,0.167799,-1.265227,-0.015664,0,0
1677190281668000,0.103711,0.101053,0.112853,-0.816262,9.538533,-0.735172,-0.235331,-0.064467,-0.081719,-0.612192,1.634749,1.374291,0.635902,0.004775,-0.003934,0.771903,-0.530229,-0.268391,-0.181569,0.783701,1.378423,0.012376,0.000000,-1.190055,-0.660133,0.000033,-0.032665,0.009607,0.052044,-0.095828,0.218218,0.045323,-0.079203,0.666748,-0.121967,0.270651,-1.199911,-0.172578,0,0
1677190281688000,0.854713,-0.119946,0.376158,1.290771,0.574946,0.899297,-0.097544,-0.183897,0.038961,-3.554226,1.530058,1.827720,0.632249,-0.001926,0.001572,0.774920,-0.551559,-0.251336,-0.178826,0.775185,1.368949,-0.004973,0.000001,-1.237157,-0.627262,0.000009,-0.015414,0.001905,0.070832,-0.067395,0.255909,0.090136,-0.061872,0.651275,-0.120099,0.298347,-1.171178,-0.164133,0,0
1677190281708000,0.910120,-0.039763,-0.023379,0.320263,-2.647522,-1.850594,-0.257826,-0.133488,0.075951,-4.233480,1.389969,1.792948,0.629971,-0.009241,0.007496,0.776686,-0.605350,-0.216818,-0.176039,0.745588,1.363188,-0.023801,0.000001,-1.364326,-0.566218,-0.000004,0.002886,-0.003685,0.080800,-0.057965,0.228656,0.078439,-0.043422,0.643961,-0.117914,0.283950,-1.210335,-0.126058,0,0
1677190281728000,0.300911,-0.059186,-0.238508,-2.108576,5.147799,-6.351067,-0.243716,-0.136947,0.104400,-4.345107,0.779249,1.521050,0.629289,-0.012577,0.010184,0.777160,-0.690597,-0.191290,-0.197394,0.669331,1.361528,-0.032372,0.000001,-1.602626,-0.557083,-0.000042,0.008945,-0.009165,0.085652,-0.096715,0.356813,-0.024758,-0.037105,0.640788,-0.117238,0.304367,-1.332602,-0.235021,0,0
1677190281748000,-0.187634,-0.733724,-0.900435,-0.854121,0.998278,-3.082226,-0.400750,-0.144541,0.130551,-6.056628,0.080228,1.316988,0.631207,-0.012794,0.010412,0.775596,-0.758606,-0.159126,-0.201469,0.599210,1.366478,-0.032996,0.000001,-1.805005,-0.519413,-0.000020,0.005176,-0.027645,0.076472,-0.109989,0.401481,-0.064043,-0.040030,0.647862,-0.132745,0.296061,-1.389314,-0.250651,0,0
1677190281768000,-0.040498,-0.160435,-0.568482,0.081855,-1.104474,0.262824,-0.196689,-0.063610,0.063787,-5.989788,-0.326685,0.614852,0.633101,-0.013233,0.010824,0.774038,-0.798293,-0.139532,-0.202491,0.550091,1.371384,-0.034197,0.000000,-1.935232,-0.497016,-0.000003,0.004293,-0.034180,0.073157,-0.104164,0.403595,-0.037866,-0.040423,0.650807,-0.135532,0.292560,-1.368688,-0.236058,0,0
1677190281787999,0.162405,-0.154064,0.199663,1.827990,6.236893,1.705765,0.009461,-0.019080,-0.040919,-5.157986,-0.585575,-0.413642,0.631641,-0.014056,0.011453,0.775206,-0.826546,-0.149212,-0.258106,0.477867,1.367644,-0.036270,0.000000,-2.093631,-0.605632,-0.000024,0.007413,-0.040119,0.084452,-0.063050,0.552037,0.015761,-0.036866,0.638727,-0.134983,0.397861,-1.393546,-0.320833,0,0
1677190281807999,0.166452,0.130464,0.338380,2.884648,-1.573642,3.177305,-0.062015,-0.029008,-0.099087,-4.580796,-0.782690,-1.223814,0.629104,-0.014309,0.011581,0.777260,-0.835275,-0.151505,-0.283484,0.446410,1.361115,-0.036823,0.000000,-2.160242,-0.654598,-0.000003,0.010559,-0.039911,0.097791,-0.000445,0.543770,0.097444,-0.033454,0.625120,-0.128257,0.453271,-1.315440,-0.295662,0,0
1677190281827999,0.167396,0.246876,-0.028733,1.009011,-8.831709,5.666645,-0.152417,0.007334,-0.092161,-2.950417,-0.632206,-1.862508,0.628240,-0.014514,0.011721,0.777952,-0.829083,-0.156733,-0.285908,0.454488,1.358901,-0.037319,0.000000,-2.138969,-0.664353,0.000008,0.013672,-0.036930,0.103080,0.024994,0.389842,0.227571,-0.030054,0.619207,-0.120783,0.419050,-1.117139,-0.216660,0,0
1677190281847999,-0.153212,-0.261931,-0.601258,-0.207002,-9.470970,2.068899,-0.247693,-0.037811,-0.030432,-1.147955,-0.483218,-2.055336,0.629665,-0.013343,0.010815,0.776834,-0.823957,-0.158834,-0.280752,0.466145,1.362523,-0.034357,0.000000,-2.112167,-0.656989,0.000002,0.010320,-0.043694,0.096237,0.026447,0.222632,0.284439,-0.032624,0.622390,-0.125848,0.333785,-0.976386,-0.110179,0,0
1677190281867999,-0.328982,-0.113693,-0.492937,-1.595889,-8.772348,-0.342581,-0.197325,-0.089657,0.023361,0.751921,-0.476771,-1.997957,0.630969,-0.011567,0.009407,0.775822,-0.817352,-0.159124,-0.268385,0.484607,1.365823,-0.029823,0.000000,-2.071510,-0.634724,-0.000002,0.003402,-0.047075,0.090903,0.000446,0.068898,0.291811,-0.038845,0.624098,-0.127624,0.219045,-0.890530,-0.005176,0,0
1677190281888000,-0.439560,-0.184829,-0.351838,-3.986816,-5.604416,-0.522825,-0.163296,-0.113108,0.031454,3.410696,-0.314091,-2.220876,0.631566,-0.009199,0.007493,0.775389,-0.800036,-0.162366,-0.249168,0.521338,1.367296,-0.023733,0.000001,-1.986863,-0.604052,-0.000005,-0.005776,-0.051476,0.087759,-0.073063,-0.021974,0.294352,-0.047285,0.622779,-0.130219,0.096984,-0.847173,0.034739,0,0
1677190281908000,-0.132159,-0.392134,-0.068970,-0.703344,-2.052554,-1.730994,-0.195476,-0.142051,0.029046,4.910513,-0.182276,-2.091509,0.629745,-0.008921,0.007232,0.776873,-0.775810,-0.176842,-0.248210,0.552757,1.362598,-0.022972,0.000001,-1.903820,-0.619500,-0.000009,-0.008854,-0.059634,0.089669,-0.080602,-0.042300,0.271544,-0.049515,0.615061,-0.135577,0.060674,-0.858869,0.064680,0,0
1677190281928000,0.377202,0.268834,0.003351,2.406844,-1.120742,1.762960,-0.115021,-0.111069,-0.021856,3.553596,0.417768,-0.839854,0.629036,-0.011199,0.009062,0.777400,-0.737500,-0.203130,-0.252761,0.592669,1.360833,-0.028818,0.000001,-1.788095,-0.660612,0.000012,-0.001790,-0.054199,0.092447,-0.025650,-0.044480,0.317473,-0.041897,0.608691,-0.127428,0.094178,-0.812027,0.102808,0,0
1677190281948000,0.494161,-0.057843,0.284721,-1.407447,-9.017799,2.324079,-0.186751,-0.089954,-0.105573,1.699450,1.078229,0.457511,0.625555,-0.013547,0.010863,0.780143,-0.714908,-0.196630,-0.221889,0.633489,1.351971,-0.034735,0.000000,-1.691780,-0.602114,0.000020,0.007569,-0.054938,0.100303,-0.046709,-0.205089,0.373526,-0.031795,0.595474,-0.124313,-0.022944,-0.736634,0.227144,0,0
1677190281968000,-0.308412,-0.402816,0.194649,0.822126,-5.896698,-0.380234,-0.291011,-0.071565,-0.090399,2.346329,1.610988,1.117808,0.621180,-0.011038,0.008749,0.783697,-0.694287,-0.189661,-0.197797,0.665698,1.340697,-0.028174,0.000000,-1.613170,-0.555266,0.000015,0.000834,-0.062235,0.105836,-0.022914,-0.303762,0.374439,-0.037537,0.582457,-0.128772,-0.066914,-0.731761,0.333525,0,0
1677190281988000,0.282275,-0.624926,0.176229,0.802461,4.773152,-2.034294,-0.104327,0.049222,0.000936,3.027142,2.076167,1.269342,0.618128,-0.012934,0.010171,0.786060,-0.673645,-0.207918,-0.206359,0.678714,1.332976,-0.032914,-0.000000,-1.563621,-0.594698,0.000010,0.005873,-0.073647,0.110507,0.000738,-0.189519,0.341263,-0.031294,0.568716,-0.137225,0.004376,-0.764250,0.260486,0,0
1677190282008000,0.150330,0.217097,-0.677506,-0.636944,4.631422,-2.219617,-0.160885,0.044447,-0.039981,1.695733,2.082052,1.556579,0.620926,-0.013345,0.010571,0.783840,-0.668887,-0.213748,-0.210115,0.680442,1.340121,-0.034055,-0.000000,-1.553972,-0.608908,0.000006,0.008235,-0.067909,0.097637,-0.004161,-0.078590,0.303419,-0.028100,0.575552,-0.133326,0.051706,-0.799605,0.173905,0,0
1677190282028000,0.010479,-0.726511,-0.132836,0.340051,4.246342,-4.535784,-0.345509,0.058418,0.076549,-0.274134,1.944257,1.780826,0.617489,-0.014182,0.011134,0.786528,-0.692120,-0.208103,-0.219739,0.655475,1.331393,-0.036068,-0.000000,-1.625498,-0.615032,-0.000002,0.007763,-0.080748,0.095224,0.010703,0.024163,0.218337,-0.027131,0.567356,-0.145381,0.107750,-0.887395,0.109891,0,0
1677190282047999,-0.104093,0.152079,0.200809,-1.280763,1.062096,-6.397832,-0.185292,-0.065055,0.190179,-2.127784,1.641300,1.910374,0.614880,-0.015379,0.011992,0.788534,-0.735526,-0.179409,-0.213650,0.617655,1.324811,-0.039010,0.000000,-1.744955,-0.565591,-0.000005,0.004965,-0.075737,0.099074,-0.006637,0.062760,0.095145,-0.029138,0.556895,-0.138860,0.089925,-1.009726,0.094490,0,0
1677190282067999,-0.717653,0.336869,0.143084,-2.950143,-2.099525,-4.612859,-0.164634,-0.116813,0.139149,-1.924152,1.094739,1.791241,0.613140,-0.012735,0.009885,0.789964,-0.767072,-0.147348,-0.189930,0.595091,1.320308,-0.032248,0.000000,-1.822328,-0.485613,0.000002,-0.010136,-0.066769,0.101389,-0.057166,0.037658,0.006831,-0.043490,0.548509,-0.129411,0.012541,-1.081317,0.120522,0,0
1677190282087999,-0.436882,0.477002,0.176073,-1.793428,2.142919,-4.987034,-0.178370,-0.083894,0.078511,-1.184517,0.353256,1.527313,0.611285,-0.011127,0.008595,0.791440,-0.800436,-0.124040,-0.177559,0.559193,1.315566,-0.028125,0.000000,-1.922325,-0.436724,-0.000007,-0.019652,-0.054754,0.104010,-0.084376,0.096942,-0.089740,-0.052282,0.540248,-0.116860,-0.012948,-1.182416,0.097292,0,0
1677190282107999,0.208758,0.417865,-0.048727,-0.398995,2.445532,-6.003594,-0.037329,-0.032330,0.004337,-0.612258,-0.499858,1.060642,0.611788,-0.012325,0.009532,0.791022,-0.829322,-0.107286,-0.170645,0.521431,1.316873,-0.031167,0.000000,-2.019306,-0.405985,-0.000012,-0.016282,-0.043692,0.101809,-0.083523,0.161822,-0.207370,-0.048127,0.536050,-0.106208,-0.018881,-1.304563,0.098761,0,0
1677190282128000,0.463950,0.142948,-0.314852,-0.257429,4.859832,-1.792431,0.070229,-0.077225,-0.043099,-0.919765,-1.320423,0.347400,0.614340,-0.014694,0.011442,0.788976,-0.856057,-0.097612,-0.175326,0.476654,1.323415,-0.037254,0.000000,-2.125766,-0.404145,-0.000018,-0.007835,-0.037917,0.093986,-0.079680,0.274537,-0.241459,-0.038674,0.535635,-0.101950,0.006013,-1.379007,0.035437,0,0
1677190282148000,0.544357,0.144949,0.299779,1.868715,2.187807,6.117387,0.056086,-0.039704,-0.050708,-2.464648,-1.707670,-0.210318,0.613423,-0.017290,0.013432,0.789605,-0.850913,-0.109244,-0.195521,0.475440,1.321195,-0.043797,0.000000,-2.122778,-0.451840,-0.000002,0.002198,-0.031905,0.098183,-0.033167,0.333364,-0.117985,-0.027760,0.523345,-0.094500,0.088500,-1.290565,-0.042160,0,0
1677190282168000,0.475500,0.106221,0.194685,2.335832,-1.406309,4.507526,-0.039962,-0.016897,-0.035813,-3.566066,-1.703797,-0.438429,0.612147,-0.019595,0.015174,0.790510,-0.857214,-0.110412,-0.206180,0.459058,1.318068,-0.049578,0.000000,-2.158505,-0.472207,-0.000004,0.010831,-0.026488,0.100031,0.022823,0.319867,-0.027299,-0.018186,0.512932,-0.088314,0.146816,-1.192794,-0.047253,0,0
1677190282188000,-0.019915,-0.147243,-0.020712,0.159936,-13.163068,3.048315,-0.112934,-0.032340,0.017939,-3.274056,-1.584380,-0.164623,0.611043,-0.019775,0.015270,0.791356,-0.865200,-0.099465,-0.189698,0.453657,1.315286,-0.049980,0.000000,-2.175968,-0.431793,-0.000001,0.009538,-0.025975,0.097350,0.035417,0.070800,0.033659,-0.018211,0.505436,-0.088594,0.078291,-0.985820,0.116587,0,0
1677190282208000,-0.340077,-0.232567,-0.446575,0.479087,-15.518257,3.739277,-0.128978,-0.023747,0.086893,-0.860807,-1.423939,0.239847,0.612019,-0.018739,0.014505,0.790642,-0.859563,-0.093269,-0.169380,0.473313,1.317703,-0.047404,0.000000,-2.135159,-0.389231,0.000001,0.001825,-0.027020,0.085956,0.054504,-0.225799,0.107936,-0.024461,0.505789,-0.092959,0.007517,-0.749609,0.323213,0,0
1677190282228000,-1.201238,-0.002263,-0.516485,0.299013,-11.077195,3.062268,-0.071424,-0.034433,0.138451,1.680826,-1.319453,0.566987,0.614173,-0.013506,0.010511,0.789141,-0.841639,-0.089732,-0.147507,0.511986,1.322950,-0.034234,0.000000,-2.048843,-0.347107,0.000001,-0.023125,-0.023324,0.072990,0.070086,-0.433999,0.168215,-0.048159,0.508687,-0.093668,-0.039465,-0.586327,0.481095,0,0
1677190282248000,0.902395,0.177005,0.570985,0.115815,-9.609433,1.084944,-0.048334,-0.108354,0.214103,4.573143,-1.056098,0.689306,0.611063,-0.020161,0.015569,0.791327,-0.809514,-0.087625,-0.125059,0.567202,1.315356,-0.050957,0.000000,-1.919585,-0.306661,-0.000000,-0.006015,-0.015925,0.081625,0.082088,-0.613259,0.188533,-0.030231,0.491455,-0.083750,-0.084780,-0.493323,0.644270,0,0
1677190282268000,-0.342757,0.679773,-1.045681,0.763737,3.070829,0.691566,-0.050622,-0.330557,0.028007,7.739973,-0.424737,0.400569,0.616665,-0.019209,0.015053,0.787003,-0.756249,-0.104314,-0.124397,0.634150,1.329511,-0.048820,0.000002,-1.746409,-0.326206,0.000001,-0.013818,0.001634,0.057799,0.107122,-0.539321,0.200610,-0.037254,0.507958,-0.073200,-0.045384,-0.483457,0.586914,0,0
1677190282287999,0.579782,0.113393,0.051508,0.913274,13.192529,2.501734,0.077609,-0.040795,-0.303337,6.117681,0.203088,0.405501,0.617278,-0.019576,0.015364,0.786506,-0.698957,-0.145323,-0.148352,0.684652,1.331088,-0.049781,0.000001,-1.591930,-0.418483,0.000010,-0.003178,0.007956,0.055811,0.135207,-0.263350,0.248555,-0.025571,0.500466,-0.067482,0.083693,-0.431977,0.349666,0,0
1677190282307999,0.512993,-0.601066,0.478211,-0.961933,-0.067109,2.626507,-0.029289,0.235140,-0.316823,1.932630,0.564428,0.950188,0.613703,-0.019258,0.014973,0.789315,-0.671724,-0.139543,-0.130933,0.715863,1.321993,-0.048799,-0.000001,-1.507509,-0.385140,0.000009,0.006121,0.000065,0.062273,0.125836,-0.252965,0.298701,-0.014646,0.481229,-0.073566,0.068947,-0.372768,0.344106,0,0
1677190282327999,0.206552,-0.698237,0.130535,-2.340842,-3.942274,-2.305695,-0.185279,0.258271,-0.080861,2.074576,0.475862,0.956252,0.610310,-0.019333,0.014898,0.791940,-0.666537,-0.121387,-0.111254,0.727242,1.313411,-0.048826,-0.000001,-1.484022,-0.330869,0.000000,0.009288,-0.009707,0.061716,0.088925,-0.320466,0.249945,-0.009670,0.468167,-0.083490,0.005331,-0.418733,0.396731,0,0
1677190282347999,0.062938,-0.372716,-0.413752,-1.799124,1.859454,-2.760735,-0.294974,0.095892,0.161540,3.434965,0.192986,0.523928,0.609187,-0.020985,0.016126,0.792739,-0.655069,-0.112471,-0.099473,0.740674,1.310656,-0.052943,-0.000001,-1.448551,-0.301478,-0.000002,0.009581,-0.012919,0.050227,0.062873,-0.272309,0.191866,-0.007696,0.467291,-0.090044,-0.011169,-0.462200,0.341695,0,0
1677190282367999,0.298188,-0.434888,-0.263610,-1.922672,6.479810,-1.953722,-0.334350,0.017088,0.267967,3.446174,-0.038478,0.107952,0.606804,-0.025004,0.019099,0.794382,-0.640448,-0.116407,-0.099034,0.752809,1.304873,-0.062945,-0.000000,-1.410115,-0.306912,-0.000003,0.014580,-0.017336,0.041712,0.034366,-0.132112,0.149741,-0.000907,0.463163,-0.096727,-0.002368,-0.473253,0.199504,0,0
1677190282388000,0.084023,-0.251063,0.244739,-1.805111,6.973737,-1.187583,-0.180735,0.103148,0.186436,2.093318,-0.223779,-0.167114,0.603547,-0.026916,0.020388,0.796765,-0.614369,-0.132906,-0.105950,0.770672,1.296799,-0.067553,-0.000001,-1.346328,-0.341646,0.000001,0.015299,-0.018052,0.043354,0.008213,0.017608,0.122784,0.001229,0.450190,-0.097412,0.015889,-0.458617,0.051652,0,0
1677190282408000,0.426346,-0.125927,0.163605,-1.072615,2.151181,-0.464962,-0.020029,0.263554,0.039763,0.677584,-0.351723,-0.300475,0.602223,-0.028741,0.021698,0.797668,-0.608747,-0.135227,-0.106266,0.774657,1.293596,-0.072049,-0.000001,-1.332332,-0.345734,-0.000001,0.022869,-0.016252,0.043377,-0.003297,0.070526,0.110157,0.010067,0.439480,-0.095619,0.015601,-0.450813,0.000329,0,0
1677190282428000,0.032514,-0.359892,0.130753,-0.567850,0.621482,-0.278848,0.114753,0.390863,-0.067026,0.005301,-0.450798,-0.430011,0.601945,-0.027485,0.020732,0.797948,-0.610029,-0.137996,-0.108934,0.772786,1.292814,-0.068877,-0.000002,-1.336728,-0.353505,-0.000002,0.022570,-0.019128,0.042762,-0.004729,0.092511,0.101160,0.011364,0.428141,-0.099059,0.014594,-0.446727,-0.018810,0,0
1677190282448000,-0.385969,0.198748,-0.933279,-0.499437,0.459816,-0.799290,0.090657,0.227882,-0.223468,-0.502886,-0.605621,-0.458034,0.607258,-0.023107,0.017670,0.794127,-0.618962,-0.140396,-0.113667,0.764527,1.305905,-0.058193,-0.000001,-1.361394,-0.363325,-0.000004,0.013909,-0.010840,0.020901,-0.004820,0.110934,0.081691,0.003942,0.440377,-0.097858,0.014680,-0.453866,-0.036524,0,0
1677190282468000,-0.197752,-0.455646,0.599564,-0.497045,-3.353761,-0.473256,-0.013503,0.206037,-0.100251,0.052671,-0.626801,-0.485393,0.603761,-0.020970,0.015887,0.796885,-0.624309,-0.139275,-0.114371,0.760266,1.296995,-0.052630,-0.000001,-1.375292,-0.362462,-0.000004,0.009023,-0.015658,0.029743,-0.004901,0.052766,0.068706,0.000505,0.419575,-0.100882,-0.012213,-0.469657,0.017109,0,0
1677190282488000,0.795929,-0.764325,-0.181975,-0.718154,-3.194623,0.713868,0.051154,0.222883,-0.060361,1.717746,-0.453417,-0.570162,0.603893,-0.024064,0.018241,0.796646,-0.610916,-0.140648,-0.111409,0.771258,1.297494,-0.060409,-0.000001,-1.340076,-0.360856,-0.000002,0.024023,-0.026677,0.023013,-0.009451,-0.002528,0.079453,0.017564,0.412186,-0.112890,-0.043658,-0.463887,0.070650,0,0
1677190282508000,-1.363004,0.881664,-0.438763,-0.457054,2.451150,-0.125021,0.418905,0.212585,-0.255815,1.543597,-0.404671,-0.489509,0.610390,-0.015495,0.011941,0.792016,-0.594080,-0.150606,-0.114412,0.782018,1.313449,-0.039132,-0.000001,-1.299593,-0.380617,-0.000000,-0.004142,-0.004813,0.011216,-0.008835,0.054796,0.073434,-0.010034,0.418429,-0.096446,-0.029227,-0.446694,0.020148,0,0
1677190282528000,-0.426141,-0.515648,0.102480,-0.822074,1.395419,-0.600006,0.339132,0.062338,-0.275769,-0.260229,-0.386330,-0.200787,0.612365,-0.011072,0.008576,0.790605,-0.598480,-0.151431,-0.116462,0.778185,1.318297,-0.028015,0.000000,-1.311445,-0.384486,-0.000002,-0.013555,-0.010940,0.010325,-0.015585,0.090716,0.057950,-0.018066,0.407159,-0.103449,-0.028042,-0.444714,-0.016509,0,0
1677190282547999,0.117970,0.418373,0.047641,-1.457033,3.697637,-0.881005,0.116239,-0.023027,-0.294788,-1.920067,-0.409913,-0.058055,0.613663,-0.009062,0.007043,0.789639,-0.616544,-0.150589,-0.121635,0.763319,1.321531,-0.022958,0.000000,-1.359123,-0.389669,-0.000003,-0.012068,0.001559,0.008425,-0.035107,0.172405,0.036902,-0.015678,0.401623,-0.092348,-0.020948,-0.440012,-0.100512,0,0
1677190282567999,0.676132,-1.186357,0.545952,-1.370192,7.222044,0.280725,-0.237652,0.149019,-0.015953,-3.501521,-0.317356,-0.126308,0.607553,-0.012002,0.009180,0.794289,-0.624177,-0.168930,-0.140606,0.749908,1.306177,-0.030226,-0.000001,-1.388593,-0.443264,0.000003,0.000600,-0.018096,0.016589,-0.052975,0.324315,0.039163,-0.001335,0.378225,-0.109267,0.019975,-0.401948,-0.242286,0,0
1677190282587999,0.804959,0.033361,-0.076379,-0.455881,3.227745,1.927019,-0.141341,0.155101,0.115014,-4.637882,0.011360,-0.217056,0.606551,-0.016019,0.012222,0.794943,-0.646981,-0.170520,-0.151591,0.727760,1.303790,-0.040307,-0.000001,-1.453718,-0.460447,0.000004,0.015864,-0.013426,0.012411,-0.052646,0.396084,0.074442,0.014963,0.373255,-0.105673,0.043521,-0.349827,-0.302347,0,0
1677190282607999,0.156218,-0.030889,0.285345,0.266383,-4.309548,-1.073205,0.003980,0.155053,-0.010858,-4.724047,0.226360,-0.226327,0.605350,-0.016227,0.012343,0.795851,-0.686872,-0.159353,-0.158304,0.691424,1.300776,-0.040784,-0.000001,-1.564539,-0.453183,-0.000001,0.018175,-0.010114,0.015578,-0.037969,0.316864,0.049826,0.018268,0.361000,-0.101912,0.015916,-0.365617,-0.225260,0,0
1677190282628000,0.569418,-0.601990,0.302221,-0.195944,-12.924572,-3.125630,0.033788,0.217016,-0.048310,-2.498225,0.316017,-0.028104,0.603578,-0.017895,0.013549,0.797141,-0.710493,-0.146059,-0.154659,0.670984,1.296393,-0.044900,-0.000001,-1.628277,-0.428795,0.000000,0.028771,-0.018304,0.019199,-0.032643,0.065108,-0.015717,0.030312,0.345357,-0.108635,-0.091109,-0.407055,0.008475,0,0
1677190282648000,0.555576,0.096706,-0.642752,-0.482827,-8.890944,-2.094742,0.036914,0.179895,-0.131045,1.118080,0.215575,0.044877,0.606464,-0.018593,0.014185,0.794920,-0.706634,-0.139708,-0.145524,0.678396,1.303679,-0.046781,-0.000001,-1.611838,-0.406306,0.000000,0.039113,-0.012606,0.004041,-0.033166,-0.106193,-0.060506,0.041703,0.351736,-0.106939,-0.165535,-0.435511,0.166839,0,0
1677190282668000,-2.093964,0.054616,-1.867809,-0.030207,0.012386,-0.112373,0.015825,0.082381,-0.151632,2.908936,0.036566,-0.097993,0.614005,-0.008725,0.006786,0.789382,-0.684785,-0.144898,-0.141711,0.700184,1.322393,-0.022110,-0.000000,-1.548849,-0.408240,0.000001,-0.003511,-0.007839,-0.035492,-0.024753,-0.099638,-0.065499,0.000235,0.381712,-0.113292,-0.160623,-0.431639,0.163730,0,0
1677190282688000,-2.751563,-1.635486,-0.830267,0.160590,1.510852,1.244028,-0.260046,-0.132398,0.277474,2.100483,-0.122585,-0.059494,0.613602,0.001051,-0.000816,0.789771,-0.662342,-0.152622,-0.140376,0.720117,1.321277,0.002661,0.000000,-1.487551,-0.417816,0.000002,-0.059262,-0.036970,-0.054146,-0.012649,-0.063313,-0.043207,-0.054671,0.383248,-0.146240,-0.140940,-0.398255,0.136816,0,0
1677190282708000,1.688215,1.016912,1.708065,-0.052550,-2.447780,0.351647,0.036646,-0.177936,0.391049,0.828309,-0.382638,0.132173,0.609323,-0.008089,0.006216,0.793012,-0.657502,-0.149979,-0.135841,0.725942,1.310542,-0.020406,0.000000,-1.472201,-0.407574,-0.000002,-0.026192,-0.013150,-0.021902,-0.004936,-0.106347,-0.038594,-0.021274,0.349039,-0.114402,-0.156084,-0.390062,0.179178,0,0
1677190282728000,1.386319,0.241213,0.531687,0.168358,-1.883385,-0.543476,0.164832,-0.166940,0.136902,1.114470,-0.441164,0.185160,0.609080,-0.014567,0.011188,0.793051,-0.653099,-0.148152,-0.132381,0.730913,1.310108,-0.036742,0.000001,-1.458731,-0.400077,-0.000003,0.000867,-0.004947,-0.013054,0.007061,-0.138268,-0.051710,0.006382,0.333602,-0.103281,-0.161656,-0.399103,0.211263,0,0
1677190282748000,1.023363,0.510806,0.122313,0.580609,2.793741,0.318842,0.202160,0.019378,-0.142899,1.069480,-0.248737,0.214536,0.610840,-0.016824,0.012982,0.791623,-0.641092,-0.155851,-0.135132,0.739392,1.314638,-0.042509,0.000000,-1.428893,-0.415595,-0.000000,0.020693,0.008543,-0.012259,0.027164,-0.076812,-0.047397,0.026605,0.327451,-0.089215,-0.123618,-0.378935,0.163597,0,0
1677190282768000,-0.900847,0.368418,-1.000428,0.198166,2.876312,0.851877,0.250058,0.050472,-0.333014,-0.567720,-0.064263,0.358643,0.616897,-0.010611,0.008317,0.787085,-0.639447,-0.159008,-0.137454,0.739712,1.329777,-0.026968,0.000000,-1.425916,-0.423583,0.000001,0.002064,0.019079,-0.033785,0.039475,-0.013857,-0.032237,0.008751,0.342296,-0.084624,-0.092147,-0.347862,0.113010,0,0
1677190282787999,-1.041204,-1.026717,-0.410407,-0.572753,-2.825896,0.949055,0.054696,-0.004167,-0.116120,-1.484770,0.048455,0.428727,0.618039,-0.005520,0.004339,0.786271,-0.651078,-0.149243,-0.132664,0.732445,1.332576,-0.014043,0.000000,-1.453579,-0.402124,0.000000,-0.019345,0.001602,-0.043377,0.036220,-0.065088,-0.014943,-0.011544,0.339108,-0.104104,-0.120016,-0.329786,0.159666,0,0
1677190282807999,0.453030,-0.593634,0.268441,-1.425640,-3.973361,-0.446160,0.037251,-0.060928,0.141967,-0.475423,0.090987,0.253905,0.616843,-0.008557,0.006706,0.787166,-0.658446,-0.139422,-0.125933,0.728971,1.329589,-0.021746,0.000000,-1.469485,-0.378051,-0.000000,-0.010840,-0.007324,-0.039259,0.015756,-0.139398,-0.025358,-0.002042,0.324775,-0.111448,-0.169826,-0.340915,0.219224,0,0
1677190282827999,0.940933,0.553461,0.423926,-1.907833,0.727292,-1.819973,0.317711,-0.080622,0.014788,0.620807,0.020478,0.194272,0.618626,-0.011809,0.009298,0.785697,-0.661539,-0.132184,-0.120033,0.728514,1.334209,-0.030066,0.000000,-1.474768,-0.359075,-0.000002,0.007452,0.006580,-0.031900,-0.014505,-0.119814,-0.063054,0.016605,0.312882,-0.095438,-0.193679,-0.369985,0.186436,0,0
1677190282847999,0.383973,0.410915,-0.228231,-2.011468,3.554258,-1.266237,0.370886,-0.014532,-0.269816,0.274513,-0.166015,0.274692,0.622844,-0.010783,0.008585,0.782381,-0.666245,-0.126010,-0.115636,0.726025,1.344939,-0.027570,0.000000,-1.485234,-0.343790,-0.000002,0.014633,0.017521,-0.037453,-0.046996,-0.043799,-0.089477,0.024309,0.312956,-0.085543,-0.201377,-0.383406,0.101611,0,0
1677190282867999,0.324022,-0.133199,0.110113,-1.445607,3.052924,-0.095626,0.313076,0.061867,-0.353550,-0.917839,-0.368911,0.240003,0.625058,-0.008824,0.007065,0.780652,-0.674533,-0.121419,-0.113847,0.719408,1.350557,-0.022610,0.000000,-1.506692,-0.334489,-0.000002,0.020646,0.017465,-0.036112,-0.068329,0.022092,-0.092290,0.031056,0.304040,-0.084815,-0.203043,-0.375713,0.031911,0,0
1677190282888000,-0.214387,-0.704426,-0.232006,-0.497847,2.166567,0.313964,0.128440,0.099804,-0.194684,-1.727517,-0.414569,0.132399,0.626417,-0.006311,0.005071,0.779603,-0.687453,-0.119370,-0.116061,0.707064,1.353990,-0.016193,-0.000000,-1.542936,-0.334585,-0.000002,0.015919,0.005871,-0.041487,-0.070868,0.070170,-0.086715,0.027228,0.299387,-0.096941,-0.192656,-0.362588,-0.014636,0,0
1677190282908000,-0.318453,-0.590458,-0.095502,-0.756121,1.902036,-0.650340,0.085044,0.050509,0.002312,-2.034066,-0.361948,0.016772,0.627020,-0.005175,0.004165,0.779131,-0.706472,-0.115727,-0.118798,0.688222,1.355522,-0.013287,-0.000000,-1.597239,-0.333283,-0.000003,0.009141,-0.003556,-0.044011,-0.078736,0.112882,-0.100229,0.021238,0.292609,-0.106272,-0.188966,-0.371000,-0.057721,0,0
1677190282928000,-0.198993,0.337425,0.326806,-0.891222,-1.873596,-0.968993,0.204091,-0.022650,0.051790,-2.169464,-0.398882,0.015827,0.627988,-0.005019,0.004049,0.778353,-0.726003,-0.108764,-0.118052,0.668890,1.358005,-0.012898,0.000000,-1.652912,-0.322475,-0.000003,0.004781,0.005462,-0.037969,-0.089470,0.080016,-0.119923,0.017376,0.281562,-0.095650,-0.212528,-0.381711,-0.028961,0,0
1677190282948000,-0.579785,0.097120,0.125411,-0.048954,-5.123953,0.392636,0.175958,-0.117202,0.032350,-1.727008,-0.520089,0.048828,0.629168,-0.003717,0.003009,0.777412,-0.738344,-0.103179,-0.116044,0.656496,1.361023,-0.009566,0.000001,-1.688280,-0.311865,-0.000003,-0.007165,0.009562,-0.035840,-0.083524,-0.017912,-0.112194,0.005978,0.273462,-0.090644,-0.238695,-0.356430,0.064223,0,0
1677190282968000,0.038443,0.379175,-0.940651,0.331788,-0.965143,1.340479,0.055464,-0.326947,-0.041940,-1.139901,-0.550428,0.008867,0.632597,-0.004025,0.003288,0.774622,-0.744101,-0.101791,-0.116512,0.650094,1.369865,-0.010397,0.000002,-1.705703,-0.310716,-0.000002,-0.006717,0.019193,-0.054920,-0.070129,-0.032708,-0.085320,0.006930,0.287392,-0.084271,-0.231396,-0.321819,0.078533,0,0
1677190282988000,-0.913665,-0.175314,-0.282571,-0.095229,3.640319,1.062881,-0.071320,-0.335533,0.016966,-1.246003,-0.485137,-0.065477,0.632759,-0.001974,0.001614,0.774502,-0.751153,-0.104504,-0.122586,0.640366,1.370266,-0.005100,0.000002,-1.729951,-0.323623,-0.000002,-0.025282,0.017625,-0.060732,-0.065441,0.044571,-0.063815,-0.011100,0.286246,-0.086235,-0.203527,-0.306942,0.004083,0,0
1677190283008000,0.067318,-0.074647,0.391640,-0.743580,1.330321,1.492612,-0.055170,-0.226818,0.120593,-1.790332,-0.398285,-0.189137,0.631153,-0.003536,0.002877,0.775802,-0.760614,-0.102870,-0.124394,0.629014,1.366135,-0.009119,0.000001,-1.759893,-0.324299,-0.000002,-0.024199,0.017963,-0.052957,-0.073886,0.075625,-0.033536,-0.009534,0.272322,-0.083400,-0.201739,-0.277251,-0.033228,0,0
1677190283028000,0.711688,-0.507649,0.566422,-0.037551,-3.492509,0.875059,-0.104999,-0.176892,0.112998,-1.630684,-0.320538,-0.343794,0.628335,-0.006888,0.005563,0.778049,-0.769459,-0.101072,-0.125809,0.618173,1.358928,-0.017711,0.000001,-1.788242,-0.324220,-0.000002,-0.010201,0.009536,-0.041587,-0.068377,0.010207,-0.015434,0.005052,0.253193,-0.087997,-0.217176,-0.239790,0.025134,0,0
1677190283047999,1.316850,0.055615,0.315274,0.726355,-4.119272,-1.982745,0.225458,-0.152427,-0.074822,-0.520143,-0.205282,-0.329515,0.629404,-0.010111,0.008190,0.777126,-0.774892,-0.100611,-0.127589,0.611053,1.361749,-0.026028,0.000001,-1.806385,-0.326460,-0.000002,0.015929,0.012271,-0.035147,-0.047755,-0.067753,-0.054320,0.031539,0.241373,-0.082227,-0.226246,-0.253867,0.111960,0,0
1677190283067999,1.535811,0.818394,0.632652,-0.291857,-0.655677,-3.360602,0.562445,0.065958,-0.384806,0.291661,-0.209674,-0.095573,0.632939,-0.010546,0.008622,0.774239,-0.779626,-0.098611,-0.126979,0.605459,1.370878,-0.027248,0.000000,-1.821223,-0.322989,-0.000003,0.046466,0.030161,-0.022270,-0.047662,-0.076438,-0.120600,0.061959,0.226378,-0.060154,-0.235251,-0.310510,0.135470,0,0
1677190283087999,-0.157655,0.251793,0.411581,-1.800938,0.368007,-2.765999,0.480850,0.344740,-0.492408,0.061473,-0.463226,0.177417,0.635991,-0.005563,0.004583,0.771821,-0.786984,-0.091841,-0.120823,0.598223,1.378667,-0.014417,-0.000001,-1.841916,-0.304751,-0.000004,0.043161,0.036621,-0.013731,-0.077914,-0.064638,-0.174831,0.058934,0.213446,-0.050998,-0.266058,-0.360595,0.129561,0,0
1677190283107999,-1.332659,-0.014768,-0.669821,-0.970069,1.617571,1.919708,0.206905,0.235870,-0.358161,-0.619305,-0.608092,0.285383,0.639402,0.001158,-0.000963,0.769031,-0.788851,-0.087972,-0.116194,0.597259,1.387479,0.003013,-0.000001,-1.845748,-0.292560,-0.000002,0.016382,0.037655,-0.026741,-0.091712,-0.027828,-0.135198,0.032494,0.220784,-0.050970,-0.266766,-0.327275,0.081727,0,0
1677190283128000,-0.118490,-1.885064,0.006510,1.545107,0.667146,2.483782,0.042189,0.155577,-0.030888,-1.057361,-0.404627,0.265741,0.638643,0.002043,-0.001695,0.769657,-0.791171,-0.088933,-0.118539,0.593575,1.385510,0.005310,-0.000001,-1.854518,-0.297517,-0.000001,0.013912,0.001189,-0.026149,-0.055367,-0.009998,-0.084139,0.030149,0.207956,-0.085306,-0.223484,-0.278216,0.062808,0,0
1677190283148000,0.409580,-1.000173,0.200576,1.544935,-1.756014,-0.677362,0.273426,0.062500,0.128879,-1.013911,-0.178803,0.302863,0.639845,-0.000023,0.000019,0.768662,-0.798005,-0.086881,-0.118586,0.584656,1.388631,-0.000058,-0.000000,-1.877233,-0.295120,-0.000001,0.022030,-0.017667,-0.021608,-0.019186,-0.040597,-0.096167,0.038564,0.194672,-0.101570,-0.198913,-0.275493,0.105304,0,0
1677190283168000,-0.183188,0.522593,0.116351,0.951583,-3.995931,0.373219,0.524818,0.081928,0.035777,-0.358833,-0.116453,0.419622,0.644061,0.000227,-0.000191,0.765134,-0.798630,-0.084002,-0.114677,0.585001,1.399625,0.000593,-0.000000,-1.877414,-0.285305,0.000001,0.018316,-0.006155,-0.018686,0.004971,-0.115952,-0.087054,0.035129,0.188487,-0.088194,-0.195504,-0.239263,0.179189,0,0
1677190283188000,-0.544138,0.908928,0.152847,1.184503,1.556712,1.829770,0.273828,0.018142,-0.073252,0.145228,0.017023,0.424432,0.646276,0.001991,-0.001686,0.763259,-0.794433,-0.085862,-0.115563,0.590249,1.405428,0.005219,-0.000000,-1.863849,-0.288979,0.000001,0.007408,0.013001,-0.014975,0.033630,-0.080205,-0.048688,0.024565,0.182828,-0.067027,-0.155318,-0.208247,0.144820,0,0
1677190283208000,-0.950774,0.198683,0.043847,0.710482,0.665613,1.149323,0.064386,-0.179027,-0.034666,0.165746,0.159879,0.399450,0.646753,0.004147,-0.003516,0.762840,-0.791138,-0.086209,-0.114669,0.594780,1.406698,0.010875,0.000001,-1.852530,-0.287951,0.000002,-0.011609,0.017872,-0.013390,0.052655,-0.062224,-0.023815,0.005817,0.177008,-0.060083,-0.130253,-0.184942,0.128059,0,0
1677190283228000,-0.945514,0.037656,-0.096293,1.435967,1.164443,-0.413915,0.125352,-0.265897,-0.015707,0.182555,0.154644,0.148747,0.647948,0.006013,-0.005113,0.761803,-0.790528,-0.088624,-0.117822,0.594620,1.409861,0.015788,0.000001,-1.852047,-0.295980,0.000001,-0.030498,0.019447,-0.014557,0.086038,-0.034205,-0.030100,-0.012861,0.173460,-0.056678,-0.090909,-0.194476,0.114824,0,0
1677190283248000,-1.000160,0.014538,0.153007,1.345634,1.197660,-0.295073,0.250089,-0.330434,-0.082699,0.033951,0.104311,-0.087875,0.649567,0.008385,-0.007162,0.760385,-0.790596,-0.092030,-0.122690,0.593026,1.414165,0.022058,0.000002,-1.854709,-0.307996,0.000000,-0.050458,0.020486,-0.010694,0.117464,-0.005454,-0.033907,-0.032619,0.164948,-0.052802,-0.052756,-0.202013,0.100245,0,0
1677190283268000,-0.623071,0.722079,-0.130462,0.917131,0.338850,1.264186,0.256740,-0.318323,-0.275758,-0.126768,0.137545,-0.221034,0.651983,0.011336,-0.009746,0.758247,-0.788535,-0.095714,-0.127000,0.594278,1.420617,0.029904,0.000002,-1.850177,-0.319456,0.000001,-0.062854,0.035607,-0.012459,0.140173,0.006193,-0.006437,-0.044436,0.164193,-0.035880,-0.025049,-0.174785,0.090819,0,0
1677190283287999,0.585766,-0.402742,-0.288738,1.163836,2.134222,1.772432,-0.123451,-0.389600,-0.211975,-0.360562,0.250042,-0.356152,0.651381,0.011315,-0.009712,0.758765,-0.786780,-0.102142,-0.135362,0.593690,1.419030,0.029827,0.000002,-1.848989,-0.340843,0.000001,-0.051053,0.028166,-0.017354,0.167671,0.053824,0.031283,-0.032765,0.163218,-0.042396,0.019936,-0.147663,0.048367,0,0
1677190283307999,-0.383446,-0.492170,-0.232421,0.227117,-1.692727,0.092177,-0.136351,-0.497365,-0.014489,-0.558813,0.268090,-0.422001,0.650494,0.011679,-0.010001,0.759516,-0.788548,-0.104133,-0.139150,0.590110,1.416705,0.030758,0.000002,-1.856955,-0.349420,0.000001,-0.058616,0.018874,-0.021091,0.176291,0.024998,0.035475,-0.040527,0.160870,-0.049933,0.019364,-0.131644,0.077583,0,0
1677190283327999,1.143034,0.687464,-0.665354,-1.246871,-1.584225,1.065310,0.143443,-0.515890,-0.108825,0.158105,0.251335,-0.592275,0.652933,0.009768,-0.008419,0.757467,-0.784817,-0.106670,-0.140888,0.594204,1.423075,0.025795,0.000003,-1.845754,-0.355341,0.000001,-0.035630,0.033116,-0.033458,0.155291,-0.001572,0.059201,-0.017150,0.170667,-0.036227,-0.006495,-0.097883,0.089723,0,0
1677190283347999,1.468021,-0.175354,-0.043616,-1.209101,1.115099,0.981884,0.292021,-0.375201,-0.217914,0.440943,0.327134,-0.693375,0.655224,0.008228,-0.007134,0.755518,-0.779623,-0.111274,-0.144768,0.599245,1.429090,0.021783,0.000002,-1.831206,-0.367292,0.000001,-0.006126,0.030046,-0.033368,0.134908,0.025933,0.081321,0.012350,0.165679,-0.037802,-0.013376,-0.080027,0.053860,0,0
1677190283367999,0.006155,-0.793846,0.791457,-2.032917,0.861377,0.890331,0.035773,-0.112275,-0.092910,0.062421,0.484028,-0.720249,0.653714,0.008862,-0.007654,0.756812,-0.776702,-0.114378,-0.147631,0.601748,1.425113,0.023422,0.000001,-1.823543,-0.375765,0.000002,-0.005841,0.014556,-0.016556,0.097913,0.048455,0.101665,0.012385,0.142389,-0.048551,-0.037289,-0.062517,0.016945,0,0
1677190283388000,0.130710,-0.143978,0.185464,-1.225054,-0.149824,1.024927,-0.060241,-0.004721,0.139214,-0.117085,0.614553,-0.632219,0.652882,0.007541,-0.006499,0.757555,-0.773885,-0.118069,-0.151341,0.603740,1.422882,0.019912,-0.000000,-1.816822,-0.386348,0.000003,-0.003048,0.012014,-0.011847,0.076941,0.050847,0.124749,0.015179,0.133012,-0.048249,-0.053025,-0.037376,0.003453,0,0
1677190283408000,-0.262977,-0.170332,-0.504354,-0.693869,0.770989,-0.200047,-0.249298,-0.066541,0.205377,0.032500,0.649602,-0.629059,0.651752,0.006337,-0.005445,0.758547,-0.771961,-0.122566,-0.156661,0.603951,1.419875,0.016712,0.000000,-1.814069,-0.400545,0.000003,-0.008111,0.008902,-0.020923,0.066462,0.071752,0.123375,0.010065,0.137223,-0.050395,-0.054150,-0.040484,-0.017177,0,0
1677190283428000,0.053965,-0.718713,0.697165,-0.304605,2.526508,-0.412547,-0.048599,0.031948,0.244460,0.202332,0.754268,-0.786750,0.649955,0.004389,-0.003753,0.760111,-0.769166,-0.129940,-0.165582,0.603597,1.415111,0.011550,-0.000000,-1.811121,-0.424190,0.000003,-0.006820,-0.005219,-0.005958,0.063638,0.127865,0.117786,0.011232,0.116005,-0.059792,-0.034100,-0.056070,-0.064945,0,0
1677190283448000,0.286338,-0.175899,0.291404,0.063562,1.959970,-1.928200,0.005896,0.095664,0.226820,0.044032,0.777716,-0.912115,0.649497,0.002261,-0.001931,0.760518,-0.768833,-0.137099,-0.175813,0.599531,1.413885,0.005948,-0.000001,-1.817264,-0.449741,0.000002,-0.000866,-0.008521,0.000897,0.068051,0.172745,0.081910,0.017170,0.104523,-0.059742,-0.014285,-0.098624,-0.092473,0,0
1677190283468000,0.309555,-0.077440,0.031021,-0.615256,0.687828,-1.859026,-0.090026,0.139117,0.174426,-0.170499,0.681914,-0.950909,0.648723,0.000579,-0.000494,0.761184,-0.769515,-0.142521,-0.184384,0.594797,1.411845,0.001523,-0.000001,-1.825804,-0.470480,0.000001,0.005567,-0.009889,0.002549,0.058762,0.192282,0.047439,0.023587,0.098526,-0.058539,-0.017216,-0.133714,-0.103862,0,0
1677190283488000,0.148251,-0.153384,-0.356422,-1.226338,-0.553153,-0.784314,-0.116721,0.191726,0.149949,-0.108400,0.604301,-0.919429,0.648311,-0.000583,0.000496,0.761535,-0.768367,-0.147171,-0.190637,0.593174,1.410761,-0.001531,-0.000001,-1.827005,-0.486523,0.000002,0.008788,-0.012805,-0.003548,0.037128,0.187099,0.034477,0.026786,0.099970,-0.060059,-0.039490,-0.141774,-0.104642,0,0
1677190283508000,0.703885,-0.009160,-0.057493,-0.854545,0.693800,-0.542609,-0.001100,0.201355,0.103742,0.210060,0.530520,-0.946103,0.648375,-0.002176,0.001853,0.761476,-0.765239,-0.153414,-0.197884,0.593263,1.410936,-0.005717,-0.000001,-1.822913,-0.506234,0.000001,0.023135,-0.012864,-0.003667,0.022810,0.206954,0.026357,0.041095,0.096010,-0.057704,-0.042949,-0.151468,-0.124595,0,0
1677190283528000,-1.830680,0.180871,-0.121374,0.209259,0.246124,-2.890431,0.094825,0.130223,0.083335,-0.173858,0.400304,-0.906379,0.649326,-0.000142,0.000121,0.760670,-0.767037,-0.158009,-0.206563,0.586742,1.413429,-0.000372,-0.000001,-1.835871,-0.526261,-0.000001,-0.013196,-0.009147,-0.005069,0.029649,0.217952,-0.028718,0.004709,0.093946,-0.051890,-0.038239,-0.204320,-0.115787,0,0
1677190283547999,-0.061905,0.776340,0.049509,0.114236,-5.276315,-2.846849,0.150886,0.051491,0.036884,-0.751756,0.309851,-0.703881,0.650603,-0.000286,0.000245,0.759578,-0.771239,-0.158807,-0.211451,0.579227,1.416788,-0.000753,-0.000000,-1.853541,-0.535336,0.000000,-0.014140,0.006458,-0.003058,0.034471,0.118599,-0.082925,0.003689,0.090360,-0.033763,-0.089734,-0.225398,-0.016057,0,0
1677190283567999,-0.449959,0.365507,0.406977,-1.755585,-7.817050,-1.726967,0.258516,-0.011485,-0.090253,-0.388292,0.198836,-0.324989,0.652193,0.000964,-0.000829,0.758212,-0.773213,-0.157174,-0.210479,0.577391,1.420981,0.002544,0.000000,-1.859038,-0.531691,0.000001,-0.022833,0.013829,0.006094,0.001781,-0.031474,-0.114744,-0.005058,0.078448,-0.022666,-0.194617,-0.209967,0.101571,0,0
1677190283587999,1.360139,0.302545,-0.340302,-1.520905,-3.606602,0.761566,0.249582,0.010185,-0.209101,0.280452,0.086748,0.069999,0.654606,0.000936,-0.000811,0.756131,-0.770555,-0.155948,-0.206187,0.582801,1.427353,0.002477,0.000000,-1.846772,-0.523056,0.000001,0.004687,0.019925,0.000291,-0.026328,-0.097245,-0.096808,0.022389,0.081130,-0.015092,-0.247209,-0.171569,0.140680,0,0
1677190283607999,0.407420,-0.267618,0.145649,-1.443888,1.180378,0.844288,0.260670,0.126791,-0.258872,0.276233,0.011347,0.287126,0.656412,0.002568,-0.002234,0.754556,-0.768729,-0.154547,-0.202431,0.586887,1.432146,0.006808,-0.000000,-1.837754,-0.515112,0.000001,0.013163,0.014607,0.004196,-0.053008,-0.067187,-0.077237,0.030735,0.072621,-0.017421,-0.252565,-0.157438,0.100534,0,0
1677190283628000,1.013388,-0.347544,0.165726,-0.976201,2.261568,0.792298,0.107394,0.189210,-0.144139,-0.148919,-0.130899,0.316705,0.657005,0.002681,-0.002337,0.754040,-0.770122,-0.152590,-0.200448,0.586253,1.433717,0.007115,-0.000001,-1.840541,-0.509397,-0.000000,0.033768,0.007680,0.008490,-0.070444,-0.015418,-0.058731,0.051189,0.063539,-0.021375,-0.239913,-0.150183,0.047043,0,0
1677190283648000,0.609690,-1.246269,0.070061,0.354187,0.094891,-0.570043,-0.259540,0.156785,0.119858,-0.417513,-0.260213,0.172845,0.654689,0.001177,-0.001020,0.756058,-0.774261,-0.150118,-0.199837,0.581630,1.427575,0.003115,-0.000001,-1.853314,-0.505310,-0.000002,0.046310,-0.017227,0.010858,-0.061379,-0.006899,-0.067502,0.063540,0.053778,-0.043264,-0.227968,-0.157680,0.049444,0,0
1677190283668000,0.575517,-0.773934,-0.147303,0.316614,-3.225793,-0.515493,-0.285686,0.098598,0.295976,-0.016383,-0.315318,0.033250,0.652501,-0.001648,0.001418,0.757945,-0.775548,-0.148352,-0.198035,0.580985,1.421796,-0.004349,-0.000001,-1.855972,-0.500144,-0.000002,0.058176,-0.032692,0.008864,-0.053171,-0.064713,-0.075216,0.075352,0.049617,-0.056343,-0.247068,-0.145500,0.107156,0,0
1677190283688000,0.071350,0.302383,-0.478600,-0.484971,-1.862539,-0.379169,-0.074455,0.115203,0.231209,0.273924,-0.389536,0.035324,0.652416,-0.003360,0.002892,0.758009,-0.775560,-0.146813,-0.195578,0.582190,1.421583,-0.008867,-0.000001,-1.853998,-0.494182,-0.000002,0.059968,-0.026632,0.000229,-0.061098,-0.095187,-0.080242,0.076973,0.055246,-0.049164,-0.267142,-0.138483,0.133720,0,0
1677190283708000,-0.070759,0.533883,-0.062849,-0.965576,0.139570,0.433063,-0.005963,0.207744,0.138932,0.142446,-0.446171,0.126977,0.652477,-0.004118,0.003544,0.757950,-0.776311,-0.144747,-0.192873,0.582609,1.421752,-0.010868,-0.000001,-1.854234,-0.487164,-0.000002,0.058927,-0.015941,-0.000107,-0.078739,-0.085547,-0.069066,0.075681,0.053377,-0.036200,-0.275375,-0.127087,0.117992,0,0
1677190283728000,0.054430,-0.080714,0.031368,-0.455375,0.122666,0.266172,-0.165324,0.262775,0.188621,-0.116358,-0.477791,0.159148,0.651120,-0.005316,0.004559,0.759103,-0.778757,-0.142214,-0.190730,0.580671,1.418193,-0.014008,-0.000001,-1.860447,-0.480502,-0.000002,0.060396,-0.017538,0.001426,-0.086276,-0.076177,-0.061274,0.077026,0.047847,-0.035079,-0.275202,-0.118866,0.108179,0,0
1677190283748000,-0.278005,-0.314963,0.117882,-0.321525,-0.224690,-0.511632,-0.248457,0.297451,0.289542,-0.156886,-0.442914,0.121963,0.648992,-0.006956,0.005932,0.760901,-0.781747,-0.139685,-0.188981,0.577832,1.412621,-0.018285,-0.000002,-1.868806,-0.474506,-0.000003,0.055225,-0.023815,0.004672,-0.091235,-0.073693,-0.069087,0.071810,0.039899,-0.038426,-0.277780,-0.123550,0.109570,0,0
1677190283768000,-0.602547,0.409076,0.255682,-1.040876,-0.872943,-0.440111,-0.116970,0.266167,0.280207,-0.124046,-0.463334,0.075536,0.647881,-0.008318,0.007073,0.761823,-0.784496,-0.136984,-0.186740,0.575476,1.409733,-0.021840,-0.000002,-1.876058,-0.467500,-0.000003,0.043570,-0.015603,0.010659,-0.110676,-0.084117,-0.075523,0.059806,0.031576,-0.027196,-0.298569,-0.122964,0.115265,0,0
1677190283787999,-0.827974,0.533177,-0.082755,0.216565,0.158365,0.955989,-0.090656,0.181387,0.165528,0.039219,-0.425915,0.020576,0.647256,-0.008769,0.007445,0.762346,-0.785094,-0.136217,-0.185959,0.575096,1.408104,-0.023009,-0.000001,-1.877414,-0.465272,-0.000002,0.027414,-0.004899,0.009859,-0.105062,-0.073863,-0.054094,0.043253,0.030385,-0.014730,-0.284254,-0.101990,0.107212,0,0
1677190283807999,-2.055407,0.325347,-0.310521,1.410439,2.091820,1.366531,-0.062873,0.036993,0.120391,-0.105000,-0.291022,-0.037344,0.647003,-0.008272,0.007018,0.762570,-0.785760,-0.136973,-0.187689,0.573442,1.407428,-0.021698,-0.000000,-1.880967,-0.469062,-0.000002,-0.013285,0.001659,0.004489,-0.075663,-0.024895,-0.024511,0.002277,0.033056,-0.007623,-0.230800,-0.085060,0.074850,0,0
1677190283827999,-1.195499,0.384274,-0.219580,1.482967,2.124576,2.691197,-0.026452,-0.062753,0.170481,-0.563778,-0.096744,-0.062715,0.646972,-0.008907,0.007557,0.762584,-0.787648,-0.137794,-0.190505,0.569715,1.407361,-0.023365,0.000000,-1.889451,-0.474742,-0.000000,-0.036779,0.009409,0.000921,-0.044904,0.024770,0.031503,-0.021547,0.034161,0.001273,-0.171746,-0.043622,0.035399,0,0
1677190283847999,-0.153513,0.013758,0.049878,0.577489,2.114156,1.644488,-0.044860,-0.083699,0.212319,-0.770846,0.033118,-0.246454,0.646588,-0.010547,0.008940,0.762873,-0.790909,-0.138730,-0.194712,0.563515,1.406402,-0.027657,0.000000,-1.903735,-0.482902,-0.000000,-0.039426,0.009765,0.002726,-0.032343,0.074260,0.066519,-0.024387,0.028779,0.004208,-0.131434,-0.022761,-0.006263,0,0
1677190283867999,1.183248,-0.129877,0.131138,0.847541,-2.092035,-0.724667,0.058921,-0.130878,0.113002,-0.414620,0.078678,-0.389939,0.646966,-0.012215,0.010365,0.762510,-0.792676,-0.139996,-0.198366,0.559429,1.407449,-0.032045,0.000001,-1.912708,-0.490555,-0.000000,-0.015332,0.007264,0.006141,-0.014466,0.039654,0.054087,-0.000424,0.021361,0.005413,-0.130780,-0.018854,0.038677,0,0
1677190283888000,0.946131,-0.360761,0.225005,0.827774,-1.620852,-2.150154,0.179741,-0.085360,-0.037099,0.100212,0.037751,-0.408725,0.648230,-0.012505,0.010646,0.761428,-0.792136,-0.142065,-0.201473,0.558561,1.410777,-0.032851,0.000000,-1.913528,-0.498253,-0.000001,0.004026,0.000163,0.011420,0.002931,0.014494,0.013077,0.018941,0.011397,0.002210,-0.131157,-0.044969,0.084005,0,0
1677190283908000,-0.150522,0.058248,0.095438,0.688243,-3.057939,-0.903699,0.286782,0.047171,-0.127592,-0.162134,-0.051822,-0.194749,0.650406,-0.011383,0.009747,0.759599,-0.793093,-0.142333,-0.202789,0.556654,1.416463,-0.029976,-0.000000,-1.917883,-0.500793,-0.000001,0.001457,0.001463,0.014092,0.017456,-0.039391,-0.003073,0.016132,0.005357,0.006139,-0.143058,-0.037710,0.144376,0,0
1677190283928000,-1.373141,0.112119,0.004609,-0.133769,-1.746351,1.053343,0.302634,0.058613,-0.135051,-0.249696,-0.050530,0.015624,0.652745,-0.009490,0.008673,0.757630,-0.794283,-0.141651,-0.202488,0.555240,1.422568,-0.025705,0.000754,-1.921730,-0.499476,0.000187,-0.025558,0.003860,0.014935,0.015460,-0.067036,0.019847,-0.011134,0.001280,0.010234,-0.151062,-0.002500,0.163465,0,0
1677190283948000,-1.143598,0.302229,-0.656390,-0.083120,0.736334,2.794796,0.184593,-0.084421,-0.059520,-0.166714,0.148280,0.040354,0.654437,-0.009288,0.007306,0.756186,-0.794115,-0.140124,-0.204205,0.555238,1.427038,-0.023611,-0.001107,-1.920260,-0.500574,-0.004804,-0.047975,0.010082,0.002546,0.014401,-0.045024,0.077524,-0.033835,0.010904,0.016358,-0.129873,0.048306,0.131684,0,0
1677190283968000,0.320303,-0.438778,-0.580063,-0.292611,0.236910,1.799724,0.193690,-0.140596,-0.044246,-0.003608,0.333203,-0.038334,0.656137,-0.010184,0.006183,0.754709,-0.792868,-0.138441,-0.207276,0.556304,1.431578,-0.023488,-0.004032,-1.914954,-0.503752,-0.012658,-0.041108,0.001506,-0.008329,0.009076,-0.033003,0.115226,-0.026901,0.016922,0.008772,-0.119966,0.083912,0.112271,0,0
1677190283988000,1.099073,-0.190776,0.414292,0.039915,-0.643095,-0.527130,0.477468,-0.045591,-0.173832,0.213941,0.377145,-0.091524,0.659615,-0.009774,0.004985,0.751686,-0.790849,-0.137450,-0.210347,0.558269,1.440803,-0.021272,-0.005401,-1.907312,-0.507706,-0.019977,-0.018658,-0.002086,0.000674,0.010329,-0.038593,0.106317,-0.004667,0.003904,0.009092,-0.120347,0.081660,0.124267,0,0
1677190284008000,0.534508,0.309748,0.338428,-0.293113,-2.089955,-1.211272,0.561682,0.014149,-0.290050,0.373245,0.288106,-0.037884,0.663781,-0.007901,0.003108,0.748042,-0.788304,-0.136624,-0.211834,0.561499,1.451862,-0.015947,-0.005840,-1.897310,-0.509118,-0.025754,-0.007492,0.004358,0.008149,0.004851,-0.073136,0.083649,0.006125,-0.006293,0.018773,-0.142143,0.076119,0.160733,0,0
1677190284028000,-0.923179,0.172415,0.081701,-0.306078,-0.401155,-0.520277,0.417977,-0.003230,-0.267282,0.475154,0.192432,0.048651,0.666932,-0.005769,0.000792,0.745260,-0.785412,-0.136041,-0.212198,0.565541,1.460252,-0.009656,-0.006514,-1.885902,-0.508879,-0.030138,-0.025472,0.008080,0.010481,-0.000955,-0.073925,0.074724,-0.012131,-0.011531,0.024754,-0.146346,0.072278,0.165206,0,0
1677190284047999,-1.096993,0.349539,-0.351941,0.698986,1.997951,0.147581,0.308971,-0.048123,-0.172102,0.108808,0.146191,0.068892,0.669408,-0.004559,-0.001169,0.743044,-0.784549,-0.135477,-0.213480,0.566390,1.466887,-0.005211,-0.007841,-1.882531,-0.510297,-0.033523,-0.046919,0.015370,0.004132,0.013275,-0.026762,0.079080,-0.033790,-0.007710,0.033408,-0.108808,0.065009,0.136037,0,0
1677190284067999,-0.031899,-0.158434,0.009747,-0.197706,0.749047,-0.514377,0.175234,-0.066143,-0.060572,0.032534,0.140162,-0.108561,0.670714,-0.004631,-0.002068,0.741863,-0.784125,-0.135719,-0.215142,0.566292,1.470407,-0.004097,-0.009281,-1.881638,-0.513363,-0.035392,-0.047056,0.012528,0.005011,0.009507,-0.004613,0.070120,-0.034168,-0.012260,0.032817,-0.100635,0.053746,0.122406,0,0
1677190284087999,0.730810,-0.405977,-0.006426,0.056665,-0.902993,-1.147084,0.170937,-0.087636,-0.016928,0.353348,0.104815,-0.327707,0.671978,-0.005462,-0.002511,0.740711,-0.781689,-0.138396,-0.217109,0.568257,1.473832,-0.004717,-0.011060,-1.875370,-0.519806,-0.035012,-0.031929,0.004762,0.005561,0.010766,-0.015546,0.048427,-0.019269,-0.017088,0.027332,-0.105515,0.040802,0.141898,0,0
1677190284107999,0.350680,-0.105498,-0.166595,0.622912,-0.634572,-0.624995,0.228119,-0.041618,-0.097027,0.498974,0.054167,-0.340265,0.673746,-0.005253,-0.003380,0.739101,-0.778319,-0.141916,-0.218824,0.571349,1.478608,-0.003211,-0.012075,-1.866306,-0.526831,-0.033713,-0.024395,0.003033,0.002903,0.023291,-0.021159,0.037098,-0.011956,-0.018021,0.027482,-0.096271,0.035546,0.159819,0,0
1677190284128000,1.046966,-0.044909,-0.041809,-0.003727,0.104219,-0.250609,0.190774,0.066255,-0.181338,0.347666,0.034355,-0.208874,0.675191,-0.003933,-0.003913,0.737787,-0.776013,-0.144142,-0.219791,0.573552,1.482499,-0.000520,-0.011085,-1.859928,-0.531084,-0.032953,-0.002923,0.002543,0.002737,0.023228,-0.012050,0.033179,0.009247,-0.021435,0.029056,-0.089529,0.033210,0.157317,0,0
1677190284148000,0.786325,-0.489591,0.136566,0.139466,-1.103084,-0.919263,0.014666,0.202445,-0.091818,0.072213,-0.007679,-0.051342,0.675237,-0.002125,-0.002944,0.737756,-0.775739,-0.144652,-0.219689,0.573833,1.482602,0.000841,-0.007214,-1.859332,-0.531532,-0.032144,0.013348,-0.006812,0.006137,0.025975,-0.027148,0.015808,0.025196,-0.029032,0.022058,-0.094147,0.025246,0.179509,0,0
1677190284168000,1.000478,0.128724,-0.147993,0.017434,-1.488022,-0.175330,0.079814,0.154500,0.058619,0.105406,0.053588,-0.041485,0.675892,-0.001761,-0.001121,0.737163,-0.774949,-0.144682,-0.219959,0.574789,1.484374,-0.001080,-0.004033,-1.856468,-0.531975,-0.033211,0.033915,-0.003774,0.003845,0.026231,-0.050010,0.013237,0.045473,-0.029805,0.026912,-0.101942,0.033743,0.203197,0,0
1677190284188000,-1.067112,0.202079,0.195978,-0.216093,-0.286795,0.053628,0.100864,0.146311,0.091934,0.465885,0.069952,-0.111315,0.676577,-0.000916,0.000191,0.736536,-0.771914,-0.146057,-0.220368,0.578359,1.486229,-0.001607,-0.000958,-1.846469,-0.534203,-0.034184,0.013143,0.000760,0.008432,0.021768,-0.048920,0.015168,0.024380,-0.037175,0.033756,-0.101511,0.039515,0.203555,0,0
1677190284208000,-0.572321,0.886629,-0.079848,0.213290,0.720304,-0.427571,0.179411,0.108216,-0.041398,0.573433,-0.034093,-0.175314,0.677963,0.000365,0.000433,0.735261,-0.768511,-0.149083,-0.220438,0.582079,1.489995,-0.000051,0.001131,-1.836593,-0.537947,-0.032004,0.002283,0.019012,0.007503,0.025846,-0.027766,0.007396,0.013190,-0.037952,0.053816,-0.085538,0.030111,0.193796,0,0
1677190284228000,0.078617,0.038310,-0.174023,0.646760,2.150510,-0.645047,0.099549,0.099557,-0.131201,0.291523,-0.216346,-0.179249,0.678767,0.001967,0.000161,0.734517,-0.767232,-0.153029,-0.219953,0.582925,1.492190,0.002672,0.002907,-1.835400,-0.542079,-0.025234,0.004457,0.020325,0.004692,0.038552,0.021910,-0.004802,0.015015,-0.038174,0.056812,-0.048653,0.008550,0.165866,0,0
1677190284248000,-0.638296,-0.355149,0.051350,0.373859,1.013389,-0.731516,0.037165,0.121452,-0.087979,0.029583,-0.203916,-0.183487,0.679008,0.003714,0.000100,0.734287,-0.767454,-0.156036,-0.219628,0.581958,1.492866,0.005319,0.005191,-1.839015,-0.545354,-0.018864,-0.007690,0.013796,0.006392,0.045758,0.048755,-0.018808,0.002484,-0.043540,0.052386,-0.027761,-0.008331,0.154432,0,0
1677190284268000,-0.823074,-0.126148,0.445783,1.003258,-0.670607,0.078125,0.005541,0.171798,-0.062675,0.015073,-0.126713,-0.246311,0.678871,0.005719,0.000512,0.734400,-0.767137,-0.158829,-0.220286,0.581371,1.492529,0.007706,0.008517,-1.840745,-0.549964,-0.014601,-0.023514,0.011874,0.015985,0.065516,0.041826,-0.016697,-0.013648,-0.056452,0.053200,-0.010368,-0.000576,0.173682,0,0
1677190284287999,-0.777839,0.319114,-0.097441,0.326095,-0.609116,0.502779,-0.012428,0.126040,-0.038216,0.488132,-0.062509,-0.350576,0.678818,0.007192,0.000822,0.734436,-0.763652,-0.162910,-0.221163,0.584489,1.492421,0.009448,0.010972,-1.832050,-0.556505,-0.011448,-0.038413,0.018884,0.014718,0.071695,0.036030,-0.006169,-0.028906,-0.057828,0.062054,-0.002772,0.015072,0.183025,0,0
1677190284307999,0.377744,-0.241630,0.217371,0.300545,0.761395,0.295838,-0.090360,0.115975,0.028629,0.685919,-0.006036,-0.419620,0.678058,0.007700,0.001962,0.735131,-0.758796,-0.167883,-0.222778,0.588777,1.490369,0.008661,0.013328,-1.819488,-0.565429,-0.008948,-0.030181,0.014706,0.019752,0.077330,0.057540,0.000144,-0.021060,-0.066066,0.060016,0.017769,0.019707,0.170669,0,0
1677190284327999,0.312420,-0.618122,-0.169803,0.442556,3.404770,1.164794,-0.107751,0.085491,0.080734,0.506843,0.190335,-0.531296,0.677311,0.007650,0.003263,0.735815,-0.753955,-0.172829,-0.227779,0.591645,1.488336,0.006837,0.015166,-1.807986,-0.579944,-0.010661,-0.023232,0.003023,0.017049,0.085777,0.131810,0.023762,-0.014666,-0.067190,0.049862,0.071269,0.028607,0.113695,0,0
1677190284347999,0.422553,-0.381971,0.056599,-0.333089,2.019179,-0.018541,-0.020408,0.096725,0.047317,-0.074102,0.332344,-0.564477,0.677126,0.007871,0.004423,0.735977,-0.752694,-0.175356,-0.234125,0.590027,1.487842,0.005595,0.017172,-1.807665,-0.593636,-0.014842,-0.014058,-0.003912,0.018882,0.078684,0.178257,0.023640,-0.005957,-0.072354,0.044781,0.094279,0.021243,0.075633,0,0
1677190284367999,1.248682,-0.628720,-0.015986,-0.081050,-1.969036,-1.894881,-0.023964,0.169426,-0.031078,-0.476349,0.400963,-0.433118,0.676928,0.008830,0.005801,0.736139,-0.754268,-0.174942,-0.240006,0.585762,1.487336,0.005146,0.020497,-1.814753,-0.602867,-0.020961,0.011664,-0.015757,0.019270,0.076609,0.144823,-0.014082,0.019233,-0.076086,0.034576,0.072310,-0.002765,0.111877,0,0
1677190284388000,0.200660,-0.515543,-0.281919,-1.471469,-3.216962,-0.626050,-0.087943,0.188125,-0.059513,-0.633217,0.425659,-0.241888,0.676352,0.010540,0.006711,0.736637,-0.756770,-0.171997,-0.244801,0.581406,1.485839,0.006450,0.024148,-1.822418,-0.607135,-0.029630,0.016452,-0.025315,0.014348,0.046703,0.086311,-0.026499,0.023335,-0.074728,0.026273,0.017742,0.005569,0.146993,0,0
1677190284408000,-0.073160,0.037309,-0.488954,-2.052699,-4.093975,-0.668940,-0.187295,0.102432,-0.010233,-0.250069,0.246044,0.016421,0.675135,0.011383,0.007320,0.737735,-0.757926,-0.168855,-0.245821,0.580390,1.482574,0.006911,0.026175,-1.823714,-0.604841,-0.035728,0.015791,-0.023793,0.005295,0.005156,0.010136,-0.039845,0.021889,-0.068404,0.028634,-0.055895,0.018570,0.189794,0,0
1677190284428000,0.815867,-0.460362,-0.125643,-0.579598,-2.566078,-1.520649,-0.292906,0.150397,0.091128,0.229847,0.021654,0.162642,0.672986,0.011526,0.009343,0.739671,-0.757204,-0.167609,-0.243916,0.582493,1.476763,0.004476,0.029340,-1.819076,-0.600010,-0.036756,0.032940,-0.032201,0.003517,-0.006945,-0.035608,-0.070294,0.038386,-0.069700,0.021625,-0.091561,0.005816,0.228654,0,0
1677190284448000,1.346203,-0.446424,-0.088792,-1.912052,-4.206707,0.065409,-0.430583,0.221687,0.181840,0.292289,0.049999,0.345859,0.669785,0.011357,0.012725,0.742523,-0.756021,-0.164389,-0.240710,0.586269,1.468121,-0.000180,0.034117,-1.810348,-0.590426,-0.040551,0.060726,-0.040310,0.002486,-0.045706,-0.114294,-0.069090,0.065545,-0.071306,0.015029,-0.160932,0.032684,0.273204,0,0
1677190284468000,-0.066001,-0.255233,-0.210248,-1.436633,-1.182139,-0.140944,-0.441984,0.165415,0.294016,0.158195,0.066038,0.523951,0.666543,0.010565,0.016061,0.745382,-0.755934,-0.159821,-0.237166,0.589082,1.459372,-0.005661,0.038037,-1.804489,-0.578609,-0.045153,0.060299,-0.044573,-0.000964,-0.074969,-0.132620,-0.072080,0.064400,-0.071086,0.011938,-0.190960,0.039598,0.275496,0,0
1677190284488000,-1.190317,0.187254,-0.389019,-0.964118,3.898433,-0.064400,-0.390840,0.151122,0.299477,0.169339,0.059712,0.550458,0.663747,0.010062,0.018957,0.747812,-0.755913,-0.156423,-0.234656,0.591023,1.451859,-0.010116,0.041724,-1.800474,-0.570031,-0.048586,0.037419,-0.039967,-0.007978,-0.094786,-0.049470,-0.073605,0.040528,-0.067221,0.016943,-0.160534,0.021937,0.199616,0,0
1677190284508000,-1.645094,0.527064,0.313905,-1.600501,3.651111,0.217937,-0.056102,0.116888,0.150700,-0.159233,-0.070270,0.365084,0.663216,0.010510,0.020348,0.748240,-0.757821,-0.154085,-0.232443,0.590066,1.450457,-0.011263,0.044408,-1.804759,-0.563493,-0.048249,0.005478,-0.028546,-0.000923,-0.127335,0.028597,-0.069546,0.008037,-0.076917,0.030240,-0.142939,0.011198,0.119822,0,0
1677190284528000,-0.579036,0.739694,-0.381650,-0.122485,-0.275284,-1.642350,0.040725,0.067542,-0.067024,-0.582392,-0.355679,0.211090,0.663667,0.011687,0.020094,0.747829,-0.762919,-0.153243,-0.229056,0.585021,1.451717,-0.009192,0.045585,-1.821999,-0.557189,-0.040281,-0.005106,-0.012854,-0.007767,-0.130322,0.027998,-0.102756,-0.003798,-0.071357,0.046357,-0.146557,-0.016422,0.128200,0,0
1677190284547999,0.303105,0.011409,0.456883,0.782474,-3.003958,-2.005566,0.206866,0.117247,-0.168102,-0.520975,-0.548300,0.251091,0.665013,0.013616,0.019686,0.746611,-0.767976,-0.153166,-0.223751,0.580460,1.455418,-0.005851,0.047523,-1.839347,-0.548590,-0.028719,0.001989,-0.011710,0.002170,-0.115207,-0.027315,-0.143290,0.002965,-0.083313,0.050112,-0.162778,-0.036113,0.193098,0,0
1677190284567999,-0.103125,0.394818,0.371221,0.651004,0.835274,-0.309759,0.208145,0.127651,-0.136227,-0.431786,-0.655380,0.242909,0.666416,0.015563,0.019447,0.745327,-0.772402,-0.154468,-0.218245,0.576324,1.459293,-0.002720,0.049753,-1.855623,-0.541232,-0.015094,0.000998,-0.002881,0.010406,-0.102715,-0.005984,-0.149967,0.001493,-0.093076,0.061216,-0.137601,-0.044646,0.185793,0,0
1677190284587999,-0.939925,0.334421,-0.115157,1.132646,-0.302504,2.580142,0.100871,0.059168,-0.060733,-0.779617,-0.636395,0.317368,0.667201,0.016784,0.019056,0.744608,-0.777956,-0.154044,-0.213301,0.570791,1.461480,-0.000434,0.050796,-1.874672,-0.532550,-0.004436,-0.016690,0.004754,0.008927,-0.080579,-0.007551,-0.098904,-0.017148,-0.094150,0.070034,-0.106139,0.008650,0.187225,0,0
1677190284607999,-0.396320,0.138709,-0.146310,1.721249,0.992694,4.173494,0.022183,0.012380,0.016655,-0.778678,-0.448568,0.204680,0.667425,0.016920,0.019124,0.744402,-0.782343,-0.153711,-0.211136,0.565667,1.462091,-0.000338,0.051079,-1.890329,-0.528524,0.001904,-0.023465,0.008491,0.006836,-0.046659,0.016644,-0.016028,-0.024937,-0.094452,0.074895,-0.047017,0.084097,0.163934,0,0
1677190284628000,0.159608,-0.343504,-0.235882,1.023886,-1.867003,2.321666,-0.141273,-0.011089,0.082332,-0.633463,-0.214611,0.131907,0.666458,0.016192,0.019748,0.745268,-0.785881,-0.152385,-0.209968,0.561541,1.459447,-0.002188,0.051040,-1.902177,-0.524938,0.004278,-0.019080,0.002596,0.002966,-0.026668,-0.016498,0.029758,-0.021639,-0.093440,0.069969,-0.032842,0.142480,0.189959,0,0
1677190284648000,-0.186188,0.073388,-0.124804,1.148825,-2.711129,0.858165,-0.216848,-0.009500,0.135312,-0.056059,0.003748,0.175172,0.664896,0.015238,0.020673,0.746657,-0.786086,-0.150683,-0.209142,0.562020,1.455202,-0.004735,0.051158,-1.901026,-0.521499,0.002094,-0.021569,0.005052,0.001329,-0.004159,-0.066664,0.046222,-0.025204,-0.094023,0.073536,-0.028945,0.178555,0.239341,0,0
1677190284668000,-0.519073,0.062173,-0.069644,0.656078,0.917108,1.565916,-0.166719,-0.016646,0.142365,0.209269,0.216341,0.184398,0.663688,0.014321,0.021483,0.747727,-0.784197,-0.148693,-0.210130,0.564814,1.451912,-0.007099,0.051160,-1.892214,-0.520755,-0.004795,-0.030673,0.007294,0.000807,0.008518,-0.044406,0.076792,-0.035361,-0.096030,0.076941,0.002950,0.204611,0.220480,0,0
1677190284688000,-0.558046,-0.067736,-0.107565,0.980710,4.250973,1.982487,-0.157863,-0.037608,0.134846,0.049072,0.436660,0.038005,0.662555,0.013318,0.022081,0.748732,-0.782331,-0.147239,-0.215123,0.565902,1.448828,-0.009317,0.050736,-1.885315,-0.527345,-0.015158,-0.040512,0.006950,-0.000461,0.027714,0.044388,0.115645,-0.046293,-0.097600,0.077635,0.073737,0.217294,0.148175,0,0
1677190284708000,-0.349415,-0.157731,0.027548,0.505307,4.456931,0.264482,-0.179142,-0.073987,0.115593,-0.380441,0.517691,-0.285253,0.661209,0.012085,0.022368,0.749933,-0.782993,-0.147004,-0.222734,0.562091,1.445172,-0.011455,0.049554,-1.890109,-0.539909,-0.023537,-0.046134,0.004814,0.000984,0.037432,0.137162,0.120093,-0.052889,-0.101825,0.076895,0.133029,0.195315,0.077643,0,0
1677190284728000,0.034882,-0.051174,-0.240199,-0.036256,1.062783,-1.033978,-0.189133,-0.090393,0.079835,-0.596559,0.412057,-0.589290,0.659896,0.010817,0.022409,0.751107,-0.784901,-0.148265,-0.230207,0.556056,1.441612,-0.013325,0.047961,-1.901349,-0.554204,-0.027366,-0.044025,0.004818,-0.002913,0.036352,0.161916,0.098527,-0.052090,-0.100072,0.077664,0.145561,0.170868,0.064179,0,0
1677190284748000,0.240587,-0.017407,-0.278081,-0.680526,-3.125982,-1.066520,0.023666,-0.100597,0.001238,-0.388918,0.232473,-0.649523,0.660206,0.009966,0.021832,0.750863,-0.785748,-0.150680,-0.235520,0.551969,1.442400,-0.013862,0.045965,-1.909097,-0.566238,-0.027501,-0.037756,0.005505,-0.007557,0.022423,0.102759,0.076270,-0.047216,-0.097261,0.079062,0.105504,0.174917,0.110952,0,0
1677190284768000,0.678141,-0.096068,0.211230,-0.216241,-3.090799,0.296578,0.203462,-0.043840,-0.088993,-0.065429,0.229265,-0.430217,0.661666,0.010010,0.021082,0.749597,-0.784759,-0.152154,-0.239371,0.551314,1.446296,-0.012892,0.044871,-1.908187,-0.574561,-0.029938,-0.022690,0.004625,-0.002403,0.017820,0.044174,0.081235,-0.033145,-0.103922,0.080241,0.078861,0.204101,0.154260,0,0
1677190284787999,0.837937,-0.057540,0.329607,-1.206340,-0.825458,-0.969072,0.118830,0.043343,-0.091891,-0.301675,0.323087,-0.128071,0.662424,0.010650,0.020949,0.748923,-0.785803,-0.150295,-0.242408,0.549006,1.448346,-0.011803,0.045507,-1.911597,-0.577576,-0.035769,-0.004382,0.004521,0.005130,-0.006543,0.030766,0.060850,-0.015788,-0.112648,0.082483,0.053005,0.194610,0.157890,0,0
1677190284807999,0.494034,-0.025640,-0.117652,-1.556974,-3.104361,-2.470496,-0.033473,0.080255,-0.083400,-0.367913,0.251626,0.065428,0.662192,0.011613,0.021022,0.749112,-0.787894,-0.146879,-0.243440,0.546471,1.447771,-0.010442,0.046895,-1.916845,-0.575363,-0.041269,0.007094,0.005058,0.003729,-0.037872,-0.028347,0.010400,-0.005706,-0.112695,0.084163,-0.008182,0.174032,0.202361,0,0
1677190284827999,0.196049,0.077789,-0.208334,-0.879089,-2.793308,-1.793511,-0.060121,0.073412,-0.124210,0.106601,0.071473,0.198381,0.661790,0.012909,0.020640,0.749456,-0.787814,-0.144673,-0.241902,0.547855,1.446768,-0.007969,0.048043,-1.913674,-0.570041,-0.044084,0.012656,0.007667,0.000526,-0.055595,-0.081362,-0.026542,-0.001693,-0.110934,0.087591,-0.051671,0.163276,0.245680,0,0
1677190284847999,0.123046,-0.113230,-0.068830,0.073030,0.452277,-0.648383,-0.051928,0.133815,-0.166468,0.220735,-0.109322,0.275428,0.661369,0.014969,0.020314,0.749799,-0.787462,-0.143751,-0.239190,0.549792,1.445761,-0.004424,0.050285,-1.910297,-0.564238,-0.043340,0.016805,0.006458,0.000123,-0.054223,-0.069584,-0.040614,0.001036,-0.112446,0.087547,-0.042030,0.149935,0.241262,0,0
1677190284867999,0.294238,-0.505842,-0.043004,-0.025993,-0.058269,0.024050,-0.169403,0.182073,-0.091130,0.008746,-0.191367,0.305894,0.660026,0.016790,0.020960,0.750925,-0.788308,-0.142377,-0.235944,0.550339,1.442303,-0.002452,0.053668,-1.911063,-0.557073,-0.041508,0.024422,-0.002602,0.000248,-0.054777,-0.068131,-0.041266,0.007278,-0.115261,0.079777,-0.036117,0.152828,0.240155,0,0
1677190284888000,-0.188402,-0.082792,0.105148,0.484152,-0.977061,0.551489,-0.226294,0.211468,0.026401,0.242491,-0.128984,0.234682,0.658220,0.018228,0.022529,0.752430,-0.787377,-0.141712,-0.233350,0.552944,1.437601,-0.002227,0.057931,-1.905782,-0.551758,-0.040988,0.022432,-0.003202,0.003346,-0.045071,-0.085164,-0.031395,0.003971,-0.120435,0.080761,-0.028142,0.171623,0.256243,0,0
1677190284908000,-0.417417,0.194124,-0.062694,1.096905,0.769462,2.546590,-0.369484,0.213832,0.112337,0.564701,0.039455,0.112443,0.655407,0.019167,0.024715,0.754789,-0.783435,-0.142189,-0.233163,0.558472,1.430214,-0.003462,0.062474,-1.890758,-0.551722,-0.044208,0.015906,0.001735,0.003098,-0.023050,-0.067371,0.018352,-0.004164,-0.121800,0.086749,0.015284,0.215531,0.240051,0,0
1677190284928000,-0.392526,0.081142,0.032846,0.571579,-0.418007,2.340569,-0.413661,0.147056,0.134396,0.452602,0.065833,0.070572,0.652224,0.019435,0.026649,0.757469,-0.780082,-0.142254,-0.233106,0.563152,1.421822,-0.005319,0.065772,-1.877813,-0.551429,-0.047690,0.009922,0.004411,0.004772,-0.011473,-0.073426,0.063956,-0.011656,-0.125318,0.090753,0.037290,0.263959,0.239182,0,0
1677190284948000,-0.300054,0.251190,-0.143923,0.699931,0.101119,-0.250194,-0.368286,0.113474,0.095724,0.551035,0.052754,0.031695,0.649455,0.019683,0.028090,0.759786,-0.776877,-0.143182,-0.232768,0.567472,1.414549,-0.006577,0.068306,-1.866256,-0.551738,-0.048994,0.005828,0.010484,0.002920,0.002735,-0.069192,0.057724,-0.017594,-0.124677,0.097565,0.055988,0.259923,0.244512,0,0
1677190284968000,-0.733098,0.022779,-0.081712,0.883501,1.178801,-0.591263,-0.368875,0.138735,0.055896,0.399624,0.043470,-0.035480,0.646615,0.020554,0.029246,0.762138,-0.774571,-0.144616,-0.233166,0.570091,1.407164,-0.006492,0.071221,-1.858914,-0.554003,-0.049193,-0.006885,0.011984,0.002324,0.020682,-0.043492,0.044653,-0.032012,-0.126572,0.099985,0.087023,0.242586,0.235845,0,0
1677190284988000,-0.441829,-0.032344,-0.528111,0.450861,-0.417946,1.352548,-0.156721,0.044816,0.026923,0.213526,0.082871,-0.106279,0.645599,0.020856,0.029619,0.762976,-0.772541,-0.145431,-0.234387,0.572132,1.404528,-0.006420,0.072191,-1.852323,-0.556903,-0.051260,-0.013733,0.012377,-0.007190,0.030044,-0.049807,0.070442,-0.041224,-0.119431,0.099868,0.102638,0.272368,0.239471,0,0
1677190285008000,0.076468,-0.135210,-0.320136,-0.090854,1.109611,1.513705,0.008543,0.037502,-0.062669,0.270561,0.141954,-0.172776,0.645759,0.021527,0.029399,0.762831,-0.769901,-0.146699,-0.236543,0.574476,1.405006,-0.005127,0.072721,-1.844131,-0.561882,-0.054250,-0.010177,0.010705,-0.012534,0.028642,-0.025644,0.099441,-0.039773,-0.115941,0.098472,0.124856,0.296603,0.211932,0,0
1677190285028000,0.689281,0.041763,-0.127715,-0.559051,-2.159880,-1.834092,0.050144,0.081625,-0.142307,0.216761,0.069482,-0.104122,0.646151,0.022827,0.029046,0.762474,-0.768780,-0.147260,-0.236679,0.575776,1.406151,-0.002726,0.073861,-1.840452,-0.562717,-0.054560,0.005671,0.012566,-0.014019,0.017948,-0.066939,0.061472,-0.025888,-0.114720,0.101231,0.093522,0.276638,0.247882,0,0
1677190285047999,0.174486,-0.016674,0.546898,-1.024915,-0.258232,-3.121819,-0.018340,0.097636,-0.129284,0.228955,-0.176431,-0.085552,0.645742,0.024337,0.028751,0.762785,-0.768701,-0.149359,-0.234701,0.576150,1.405225,-0.000003,0.075364,-1.841567,-0.562067,-0.048259,0.011257,0.013250,-0.002000,-0.001991,-0.070260,-0.002261,-0.021255,-0.127685,0.105018,0.068614,0.221146,0.253729,0,0
1677190285067999,-0.622929,-0.063242,-0.271352,-0.640435,-2.451962,-1.935516,-0.181055,0.153298,-0.070083,0.175054,-0.411046,0.012127,0.644376,0.026165,0.029032,0.763869,-0.769144,-0.151637,-0.230450,0.576680,1.401837,0.002558,0.078153,-1.844183,-0.557881,-0.038353,0.000926,0.012993,-0.006335,-0.014166,-0.117508,-0.042274,-0.033743,-0.125924,0.105195,0.033111,0.200517,0.294321,0,0
1677190285087999,-0.378185,-0.185540,0.286767,0.072847,-0.642612,2.500996,-0.076060,0.176610,-0.037241,0.666078,-0.280127,0.065728,0.643595,0.027882,0.029778,0.764437,-0.765240,-0.154019,-0.227164,0.582517,1.399984,0.004299,0.081508,-1.830885,-0.555193,-0.034048,-0.004481,0.010280,0.000504,-0.012002,-0.128613,0.006440,-0.040439,-0.135161,0.104848,0.043102,0.253878,0.293178,0,0
1677190285107999,-0.003577,-0.188829,-0.380333,-0.007453,2.594671,3.283041,-0.227890,0.127598,-0.012837,0.933798,0.099097,0.068130,0.641930,0.028882,0.030557,0.765769,-0.758352,-0.155350,-0.227271,0.591069,1.395753,0.005004,0.083979,-1.806632,-0.556654,-0.038931,-0.002369,0.007491,-0.005988,-0.011369,-0.075009,0.070792,-0.040765,-0.130691,0.102097,0.086474,0.306008,0.235702,0,0
1677190285128000,0.781659,-0.420041,0.087239,-0.260627,4.016278,0.376387,-0.132513,0.109713,-0.011513,0.486230,0.271193,-0.063984,0.640815,0.029435,0.031480,0.766643,-0.754662,-0.156292,-0.229990,0.594481,1.392915,0.004787,0.086099,-1.794617,-0.562088,-0.044394,0.015471,0.000065,-0.003116,-0.015725,0.006999,0.077014,-0.024605,-0.134845,0.096353,0.130942,0.295620,0.163696,0,0
1677190285148000,0.730404,-0.118908,0.271896,-0.189552,-2.521733,-1.844632,-0.051758,0.149097,-0.054397,-0.008569,0.157692,-0.064757,0.640249,0.030621,0.032274,0.767037,-0.754691,-0.155513,-0.230972,0.594267,1.391585,0.005649,0.088840,-1.794219,-0.562682,-0.047058,0.032306,-0.001350,0.003462,-0.018585,-0.041773,0.038819,-0.009202,-0.141575,0.097185,0.102770,0.274167,0.208659,0,0
1677190285168000,0.459687,0.008549,-0.150617,0.345434,-4.899520,-2.658429,-0.055918,0.205369,-0.081556,0.388896,-0.040107,0.073327,0.639791,0.032531,0.033123,0.767304,-0.753056,-0.155663,-0.228878,0.597105,1.390635,0.007538,0.092591,-1.787896,-0.559320,-0.045885,0.043744,-0.000230,0.001602,-0.010671,-0.138113,-0.015645,0.000024,-0.139988,0.099021,0.057177,0.247424,0.301621,0,0
1677190285188000,-0.585383,0.068610,-0.271248,-0.036997,-0.718511,-1.558413,-0.014560,0.215111,-0.075297,0.815017,-0.198223,0.201345,0.639678,0.034902,0.033723,0.767268,-0.749346,-0.157130,-0.224575,0.602994,1.390663,0.010416,0.096556,-1.774868,-0.553968,-0.041572,0.034294,0.002078,-0.002656,-0.010332,-0.150836,-0.048098,-0.011809,-0.137776,0.101792,0.051428,0.222019,0.317053,0,0
1677190285208000,-0.940648,0.177895,-0.211810,0.498180,2.821974,0.409729,0.047092,0.125103,-0.080561,0.315363,-0.304657,0.201005,0.640045,0.036770,0.033575,0.766881,-0.748254,-0.158922,-0.221458,0.605029,1.391883,0.013418,0.098734,-1.771955,-0.551210,-0.035397,0.017748,0.006557,-0.005712,0.000781,-0.092744,-0.041175,-0.030609,-0.137036,0.107057,0.096320,0.219134,0.272252,0,0
1677190285228000,-0.780324,0.170429,-0.080779,0.709652,0.472779,2.439925,0.096027,0.000454,-0.091352,-0.254712,-0.268346,0.181316,0.640780,0.037702,0.032583,0.766265,-0.749851,-0.158729,-0.219382,0.603857,1.393929,0.016023,0.098422,-1.777091,-0.547678,-0.031517,0.004413,0.010873,-0.006132,0.016194,-0.081622,0.006369,-0.045945,-0.138545,0.112638,0.126607,0.265932,0.261713,0,0
1677190285248000,-0.307167,0.339651,-0.069212,0.622912,0.929549,2.536847,0.166644,-0.043384,-0.120582,-0.295142,-0.114534,0.136534,0.642078,0.038323,0.031212,0.765203,-0.751220,-0.157919,-0.218894,0.602544,1.397400,0.018570,0.097150,-1.781163,-0.545893,-0.031035,0.000544,0.018557,-0.006304,0.029941,-0.061342,0.055872,-0.051824,-0.138738,0.121458,0.160305,0.312531,0.242100,0,0
1677190285268000,0.265979,0.065348,0.054074,0.399891,2.220466,1.429193,0.139710,-0.034591,-0.148558,-0.477691,0.015369,0.062481,0.643099,0.038962,0.029879,0.764366,-0.753629,-0.156816,-0.220233,0.599328,1.400156,0.021134,0.095958,-1.789124,-0.546753,-0.032338,0.008134,0.020739,-0.003995,0.039293,-0.015214,0.083247,-0.046054,-0.141173,0.125066,0.200167,0.331424,0.202445,0,0
1677190285287999,0.007527,-0.311688,-0.214481,-0.233419,2.668844,0.189849,0.075481,0.027469,-0.157647,-0.840740,0.068574,-0.070712,0.643676,0.040225,0.028808,0.763857,-0.758430,-0.155639,-0.223020,0.592510,1.401851,0.024368,0.095969,-1.806157,-0.550044,-0.033084,0.010548,0.015365,-0.007039,0.036042,0.039922,0.085863,-0.046009,-0.140091,0.120442,0.230170,0.323551,0.153511,0,0
1677190285307999,-0.888283,-0.183071,-0.484185,-1.110528,1.955690,-0.687524,0.190661,-0.037814,-0.163393,-1.106027,0.010976,-0.245632,0.645246,0.041424,0.026921,0.762535,-0.765028,-0.155136,-0.226116,0.582909,1.406138,0.028437,0.094694,-1.830879,-0.554867,-0.030879,-0.004967,0.012547,-0.015459,0.015310,0.080842,0.070964,-0.064312,-0.134926,0.117986,0.235306,0.301879,0.111204,0,0
1677190285327999,-0.884238,0.354540,-0.266271,-1.494644,-0.844202,-2.605839,0.453566,-0.142028,-0.261375,-1.013084,-0.173396,-0.335688,0.648758,0.042507,0.023524,0.759603,-0.771637,-0.156105,-0.227382,0.573370,1.415503,0.034060,0.091070,-1.857083,-0.558510,-0.023391,-0.020418,0.020465,-0.019502,-0.013048,0.065819,0.017736,-0.081910,-0.132208,0.126997,0.199212,0.259247,0.120103,0,0
1677190285347999,0.818415,0.493498,-0.239844,-1.080544,-0.001324,-1.943110,0.618245,-0.123291,-0.371173,-0.542350,-0.319622,-0.414936,0.653487,0.043847,0.019883,0.755567,-0.775508,-0.159780,-0.227510,0.567046,1.428164,0.040283,0.087534,-1.875671,-0.563417,-0.012059,-0.001838,0.031147,-0.022996,-0.033071,0.067718,-0.022196,-0.065417,-0.126618,0.137643,0.180926,0.224083,0.116972,0,0
1677190285367999,0.632283,-0.264071,0.503055,-1.134037,1.490205,-0.061599,0.505540,0.024127,-0.373856,-0.392057,-0.335531,-0.431226,0.656967,0.046342,0.017186,0.752460,-0.778029,-0.164164,-0.227836,0.562189,1.437790,0.047178,0.086961,-1.890174,-0.569377,-0.000862,0.012991,0.026661,-0.011610,-0.054115,0.099518,-0.024451,-0.051712,-0.138145,0.135374,0.183514,0.215158,0.079774,0,0
1677190285388000,0.558391,-0.485308,-0.253577,-0.206252,3.185587,-0.544390,0.208056,-0.027353,-0.168258,-0.584821,-0.325240,-0.511998,0.658562,0.047078,0.015823,0.751047,-0.781584,-0.169425,-0.229696,0.554894,1.442151,0.049896,0.085988,-1.910639,-0.578871,0.011858,0.026309,0.017734,-0.015335,-0.056559,0.165306,-0.036310,-0.041054,-0.135413,0.126767,0.217954,0.185577,0.028804,0,0
1677190285408000,0.226793,-0.582454,-0.201907,1.409099,1.211052,0.367393,0.094936,-0.071376,0.035589,-0.568562,-0.339573,-0.808005,0.659367,0.046242,0.015649,0.750396,-0.783917,-0.176907,-0.233270,0.547731,1.444142,0.048782,0.084668,-1.930202,-0.593811,0.026332,0.032957,0.006850,-0.018002,-0.026657,0.191689,-0.029876,-0.036957,-0.134481,0.116703,0.262110,0.186498,0.022180,0,0
1677190285428000,0.221896,-0.746107,-0.349679,2.847057,-2.766867,2.120638,0.071706,-0.092705,0.171834,-0.272778,-0.245510,-0.876990,0.660115,0.044340,0.016374,0.749838,-0.783675,-0.184517,-0.237228,0.543853,1.445809,0.044893,0.083273,-1.940482,-0.609575,0.038021,0.039462,-0.007322,-0.023601,0.032039,0.138606,0.011685,-0.033277,-0.131012,0.103044,0.292374,0.248529,0.083082,0,0
1677190285448000,-0.490979,-0.208369,-0.139311,2.750705,-3.921441,3.215532,0.146324,-0.071535,0.299320,0.224378,0.089550,-0.666777,0.661398,0.042028,0.017927,0.748805,-0.780059,-0.189557,-0.241646,0.545370,1.448854,0.039238,0.082599,-1.934334,-0.623345,0.039614,0.031660,-0.010753,-0.024966,0.088837,0.062532,0.075214,-0.043029,-0.131460,0.101153,0.310717,0.338589,0.154721,0,0
1677190285468000,-1.139840,0.481459,0.193396,1.996529,2.483492,2.391548,0.175103,-0.128592,0.349342,0.419138,0.473779,-0.586757,0.662816,0.039164,0.019282,0.747671,-0.774531,-0.193400,-0.249409,0.548397,1.452198,0.033009,0.080882,-1.920475,-0.641591,0.032504,0.010825,-0.000400,-0.019649,0.130574,0.114663,0.122338,-0.064800,-0.137812,0.114111,0.386090,0.370313,0.126661,0,0
1677190285488000,-0.754819,0.022201,0.586571,2.483004,3.035387,-1.005278,0.090438,-0.025361,0.251044,-0.056054,0.704981,-0.706093,0.663366,0.037582,0.020723,0.747226,-0.771697,-0.196091,-0.260092,0.546471,1.453439,0.028675,0.080953,-1.917578,-0.663325,0.023328,-0.002371,0.000755,-0.006441,0.182057,0.177943,0.101607,-0.078457,-0.152413,0.118546,0.463667,0.333956,0.116179,0,0
1677190285508000,0.572061,0.035855,-0.227167,1.794476,-4.077599,-2.276976,0.188587,0.005913,0.067769,-0.231217,0.764801,-0.691703,0.664913,0.036996,0.021395,0.745861,-0.769829,-0.196475,-0.269835,0.544239,1.457493,0.026739,0.081233,-1.915131,-0.680667,0.011317,0.010902,0.002172,-0.009477,0.219779,0.099082,0.055532,-0.067029,-0.148704,0.120617,0.440352,0.319768,0.208942,0,0
1677190285528000,0.339826,0.106180,0.101997,0.004886,-3.660507,-2.290284,0.231388,0.078924,-0.057707,0.456579,0.674609,-0.551112,0.666588,0.037892,0.021516,0.744315,-0.764834,-0.197841,-0.276333,0.547515,1.462116,0.027726,0.082673,-1.899329,-0.693639,0.000051,0.019457,0.004986,-0.005899,0.221713,0.028686,0.009286,-0.059646,-0.151704,0.124933,0.393260,0.301512,0.272232,0,0
1677190285547999,-1.510432,-0.156305,-0.034184,-0.918811,4.397097,-2.350046,0.170198,0.150878,-0.035261,0.703015,0.542724,-0.535387,0.667795,0.039872,0.021671,0.743124,-0.759363,-0.202118,-0.282365,0.550482,1.465658,0.030321,0.085604,-1.885473,-0.709377,-0.005155,-0.009073,0.002543,-0.005012,0.205169,0.119569,-0.038052,-0.089453,-0.155695,0.124837,0.430495,0.230960,0.206404,0,0
1677190285567999,0.177360,-0.481668,-0.005555,-1.832574,6.459331,-2.470307,0.086716,0.071052,0.047480,-0.246425,0.492519,-0.606588,0.668435,0.040032,0.022526,0.742514,-0.759399,-0.205166,-0.290543,0.545024,1.467407,0.029339,0.087116,-1.894290,-0.727382,-0.006827,-0.003933,-0.006414,-0.003519,0.170339,0.251829,-0.087684,-0.085719,-0.158022,0.117305,0.480056,0.144277,0.100830,0,0
1677190285587999,0.386222,-0.957220,0.050620,-3.367784,-1.523002,-4.527834,-0.099356,0.073714,0.109164,-1.061707,0.405772,-0.598501,0.667661,0.039663,0.024015,0.743184,-0.764219,-0.203856,-0.297226,0.535085,1.465275,0.026890,0.088806,-1.916833,-0.737517,-0.008783,0.005292,-0.024887,-0.000868,0.104785,0.224578,-0.178348,-0.077858,-0.162102,0.100329,0.396170,0.071672,0.098065,0,0
1677190285607999,1.362371,-0.506666,-0.529185,-3.445860,-6.257379,-3.045539,-0.193512,0.135072,0.088731,-0.922622,0.243900,-0.312380,0.666430,0.039489,0.026142,0.744226,-0.768642,-0.200945,-0.300682,0.527870,1.461950,0.023937,0.091699,-1.933860,-0.740123,-0.011554,0.033941,-0.034352,-0.009777,0.037644,0.102779,-0.239238,-0.051451,-0.151936,0.090604,0.258194,0.062275,0.152564,0,0
1677190285628000,1.772915,-0.678983,-0.180927,-4.202571,-5.783587,-0.628035,-0.176511,0.157997,0.049156,-0.786983,0.091953,0.274002,0.665162,0.039576,0.028272,0.745277,-0.773539,-0.194417,-0.299592,0.523764,1.458572,0.021380,0.094955,-1.944820,-0.730375,-0.017521,0.070699,-0.047264,-0.011683,-0.044667,-0.009402,-0.251642,-0.016238,-0.148200,0.078092,0.127740,0.096680,0.178747,0,0
1677190285648000,0.205145,-0.096904,-0.103687,-2.517364,-4.698525,-0.344111,-0.185291,0.111436,0.119172,-1.097268,-0.006413,0.905458,0.663821,0.039476,0.030052,0.746407,-0.781291,-0.182924,-0.295454,0.518728,1.454975,0.019033,0.097443,-1.959582,-0.709490,-0.027266,0.075991,-0.048531,-0.012007,-0.093315,-0.099736,-0.258223,-0.011958,-0.147614,0.077985,0.038515,0.129983,0.212524,0,0
1677190285668000,-1.422188,0.182345,-0.134154,-1.978756,-6.825225,0.999033,-0.226444,0.094103,0.257680,-1.055024,-0.009599,1.431214,0.662213,0.038914,0.032232,0.747773,-0.789194,-0.167291,-0.288567,0.515914,1.450600,0.015509,0.099920,-1.968621,-0.679092,-0.043321,0.048620,-0.044210,-0.012900,-0.131242,-0.232457,-0.237788,-0.040095,-0.148971,0.083855,-0.056803,0.207181,0.278205,0,0
1677190285688000,-1.489658,0.930889,0.277534,-1.305665,-1.122284,3.049644,0.033738,-0.043355,0.214366,-0.655686,0.029551,1.618095,0.662479,0.037674,0.033096,0.747562,-0.794338,-0.151656,-0.281345,0.516841,1.451124,0.012477,0.099572,-1.967183,-0.648171,-0.062617,0.019779,-0.024910,-0.005519,-0.155765,-0.250970,-0.176177,-0.068751,-0.156766,0.105497,-0.065362,0.274625,0.258793,0,0
1677190285708000,-0.356628,0.268405,-0.207514,-0.669356,4.481150,1.960513,-0.163744,-0.101010,0.104628,-0.793581,-0.061627,1.402406,0.661397,0.036300,0.033158,0.748585,-0.800186,-0.139574,-0.276236,0.513969,1.448036,0.010487,0.097822,-1.975787,-0.625562,-0.074799,0.013472,-0.018850,-0.007797,-0.167630,-0.157265,-0.136177,-0.075839,-0.154271,0.112508,-0.012581,0.273348,0.170252,0,0
1677190285728000,0.577320,-0.330217,-0.333560,0.648397,1.020056,-0.526715,-0.125816,-0.055857,0.080591,-0.763144,-0.266213,0.997194,0.660621,0.035077,0.033642,0.749307,-0.806352,-0.131177,-0.270230,0.509717,1.445795,0.008117,0.096916,-1.990119,-0.605932,-0.077852,0.025711,-0.024750,-0.012555,-0.153214,-0.132631,-0.145739,-0.064538,-0.148939,0.107141,0.011227,0.255447,0.164445,0,0
1677190285748000,0.941245,-0.077614,0.249843,1.164268,0.076536,-0.499117,0.065356,0.006472,0.024778,-0.230686,-0.398561,0.535371,0.661042,0.034613,0.034173,0.748933,-0.809341,-0.128514,-0.264818,0.508495,1.446851,0.006666,0.097103,-1.997319,-0.593606,-0.074006,0.045092,-0.025581,-0.005601,-0.128564,-0.126716,-0.154558,-0.044876,-0.153767,0.108200,0.034646,0.245865,0.178342,0,0
1677190285768000,0.186259,0.368479,0.271159,1.381089,1.199914,0.822005,0.100672,-0.025864,-0.001104,0.083774,-0.516545,0.213011,0.661732,0.034387,0.034024,0.748341,-0.810261,-0.130129,-0.260251,0.508976,1.448660,0.006437,0.096586,-2.000472,-0.587411,-0.064972,0.049231,-0.017470,0.001823,-0.099669,-0.098182,-0.136754,-0.040250,-0.159368,0.118251,0.080158,0.249710,0.168396,0,0
1677190285787999,-0.635253,0.378228,0.147635,1.505387,1.027808,1.795387,0.017833,-0.050788,0.053204,0.124693,-0.540700,-0.003763,0.661853,0.033889,0.033878,0.748263,-0.810437,-0.133688,-0.256743,0.509555,1.448915,0.005871,0.095707,-2.003039,-0.585229,-0.053956,0.036793,-0.009140,0.006820,-0.068388,-0.072941,-0.099271,-0.052220,-0.164059,0.128287,0.131479,0.272740,0.155540,0,0
1677190285807999,-1.086520,-0.053126,-0.188815,1.626113,1.572732,2.151295,-0.000776,-0.060803,0.105681,0.210152,-0.328970,-0.196937,0.661953,0.033149,0.033901,0.748207,-0.809239,-0.138095,-0.256082,0.510615,1.449081,0.004723,0.094758,-2.002215,-0.588952,-0.045732,0.015178,-0.009410,0.005132,-0.034799,-0.036652,-0.054450,-0.073760,-0.163974,0.128962,0.191874,0.297651,0.133499,0,0
1677190285827999,-1.165997,-0.059922,-0.037819,3.049339,0.870365,2.215436,0.124028,-0.073495,0.054232,0.064526,-0.031302,-0.302541,0.662922,0.032728,0.033385,0.747390,-0.807779,-0.141551,-0.258742,0.510640,1.451611,0.004658,0.093431,-2.001161,-0.597498,-0.043028,-0.008181,-0.009785,0.006510,0.027140,-0.014263,-0.008116,-0.096596,-0.166985,0.129871,0.269292,0.329047,0.138059,0,0
1677190285847999,-1.084680,0.520690,-0.111191,3.180809,-1.555463,0.304914,0.357266,-0.019385,-0.119232,-0.043446,0.128620,-0.284594,0.665623,0.033899,0.031888,0.744999,-0.806888,-0.143397,-0.261975,0.509884,1.458989,0.008059,0.092776,-2.001182,-0.605291,-0.043476,-0.030073,0.001487,0.006465,0.091587,-0.040246,0.000248,-0.117979,-0.167047,0.142220,0.314071,0.347312,0.194029,0,0
1677190285867999,-1.254548,0.582321,-0.453113,2.327765,-2.881788,-2.257711,0.398848,-0.109973,-0.222986,0.291354,0.055432,-0.251557,0.668735,0.035167,0.028935,0.742269,-0.805047,-0.145964,-0.263216,0.511423,1.467513,0.013507,0.090119,-1.996813,-0.610286,-0.041759,-0.055525,0.014032,-0.000374,0.138843,-0.092611,-0.042392,-0.143291,-0.160515,0.155273,0.317058,0.331518,0.277628,0,0
1677190285888000,-0.360933,0.302870,-0.219833,2.114962,-0.939149,-0.930633,0.336632,-0.217280,-0.197309,1.082752,-0.010492,-0.418153,0.671329,0.035122,0.025763,0.740043,-0.798830,-0.152494,-0.264015,0.518805,1.474488,0.017392,0.085405,-1.977995,-0.618772,-0.037215,-0.063271,0.021032,-0.002502,0.181709,-0.105984,-0.058233,-0.150353,-0.157560,0.163065,0.343165,0.322514,0.320833,0,0
1677190285908000,2.068781,-0.150718,-0.087848,2.073712,2.917259,2.091385,0.125174,-0.107583,-0.135908,1.549735,0.145883,-0.625085,0.672311,0.034496,0.024695,0.739217,-0.788507,-0.161793,-0.267816,0.529722,1.477048,0.017795,0.083002,-1.947095,-0.635724,-0.035533,-0.022591,0.019009,-0.001947,0.223607,-0.042091,-0.013366,-0.108847,-0.154034,0.161218,0.424724,0.338727,0.288041,0,0
1677190285928000,2.431010,-1.910230,0.664474,1.610797,5.404997,3.410844,-0.146285,0.165598,0.000861,1.128298,0.464774,-0.787553,0.670849,0.034583,0.026855,0.740464,-0.778583,-0.170118,-0.276569,0.537242,1.473121,0.015184,0.086288,-1.919891,-0.660424,-0.040866,0.025164,-0.018152,0.013699,0.256099,0.071689,0.058166,-0.059046,-0.168132,0.125811,0.534056,0.363094,0.207766,0,0
1677190285948000,1.071844,-0.910060,-0.184948,0.647650,3.682689,1.301846,-0.370825,0.186569,0.250240,1.065409,0.661701,-1.090290,0.668164,0.033724,0.030506,0.742787,-0.768468,-0.179066,-0.287319,0.543223,1.465782,0.009333,0.090514,-1.894041,-0.689480,-0.047894,0.045562,-0.035251,0.012400,0.269176,0.151153,0.087802,-0.037565,-0.165772,0.109164,0.599962,0.362945,0.154350,0,0
1677190285968000,-0.578134,-0.786124,-0.618026,0.085784,4.051088,-3.206068,-0.309268,0.064483,0.432616,1.594757,0.506586,-1.574843,0.666171,0.031438,0.034058,0.744521,-0.756294,-0.194234,-0.297273,0.549707,1.460139,0.001435,0.092733,-1.868155,-0.725079,-0.044140,0.032787,-0.049808,0.002481,0.270857,0.238109,0.027571,-0.049611,-0.157648,0.094223,0.642602,0.277617,0.110164,0,0
1677190285988000,-1.207453,-0.193501,-0.850584,-0.295946,5.834058,-5.872739,0.033428,-0.071128,0.392422,1.290487,0.201319,-1.990624,0.666867,0.028762,0.036087,0.743910,-0.746143,-0.213677,-0.307338,0.550830,1.461680,-0.005337,0.092184,-1.859032,-0.767080,-0.027384,0.007250,-0.052446,-0.012047,0.264741,0.360845,-0.085695,-0.074673,-0.144733,0.090420,0.695022,0.131935,0.048132,0,0
1677190286008000,-1.339685,0.666150,0.194359,-1.899167,-1.309181,-5.034303,0.454567,-0.055225,0.187791,0.094542,-0.008555,-1.761828,0.670284,0.027727,0.036569,0.740849,-0.743223,-0.226997,-0.315355,0.544879,1.470747,-0.007940,0.091484,-1.872931,-0.798242,-0.008943,-0.021106,-0.037818,-0.005637,0.226395,0.340831,-0.181886,-0.100756,-0.150978,0.105875,0.634574,0.045562,0.057911,0,0
1677190286028000,-1.327447,0.784069,0.662899,-3.099250,-10.735360,-3.134135,0.501660,-0.037676,0.039093,-0.327582,-0.088514,-0.985587,0.673830,0.027825,0.036056,0.737647,-0.743857,-0.232257,-0.318780,0.539775,1.480332,-0.007542,0.090819,-1.887338,-0.811015,0.002021,-0.049393,-0.020753,0.010182,0.163878,0.132404,-0.239761,-0.125775,-0.166377,0.124508,0.435984,0.053725,0.165626,0,0
1677190286047999,-0.992326,1.018675,0.445667,-3.870278,-10.240526,-1.682399,0.359808,-0.068537,-0.029360,0.950525,-0.114454,-0.370358,0.676385,0.027986,0.034968,0.735350,-0.738861,-0.236927,-0.315657,0.546403,1.487277,-0.006146,0.089407,-1.871629,-0.811570,0.007495,-0.071153,0.001086,0.021694,0.085770,-0.066024,-0.268285,-0.144550,-0.176537,0.147444,0.239529,0.082075,0.249678,0,0
1677190286067999,-0.522828,0.584304,-0.236771,-3.703738,-1.222659,0.122551,0.154374,-0.096000,-0.048630,2.159201,-0.164385,-0.100901,0.677644,0.027859,0.033737,0.734253,-0.727562,-0.244118,-0.308448,0.562294,1.490682,-0.004813,0.087412,-1.831188,-0.808659,0.012083,-0.083696,0.014326,0.019592,0.010819,-0.083996,-0.260387,-0.155030,-0.173028,0.160665,0.177758,0.091297,0.210620,0,0
1677190286087999,1.081526,0.013597,-0.090587,-2.186826,3.399174,1.703174,-0.015415,-0.182648,0.002191,2.105489,-0.239192,-0.104975,0.677642,0.026091,0.032895,0.734358,-0.715214,-0.252960,-0.303050,0.576971,1.490485,-0.006261,0.083773,-1.791886,-0.811604,0.017633,-0.064325,0.016246,0.020446,-0.033966,-0.009440,-0.220551,-0.133142,-0.170589,0.162922,0.206935,0.111445,0.126719,0,0
1677190286107999,1.120404,-0.417220,-0.374397,-0.623822,-0.378044,2.780297,-0.034070,-0.237177,0.061105,1.726836,-0.321664,-0.224493,0.677632,0.023481,0.032152,0.734489,-0.704683,-0.261055,-0.297915,0.588873,1.490196,-0.009082,0.079140,-1.760447,-0.814420,0.024847,-0.044346,0.009647,0.015655,-0.047666,-0.010344,-0.158843,-0.110770,-0.163219,0.156194,0.205271,0.168690,0.114186,0,0
1677190286128000,1.227224,0.182712,-0.225199,0.121797,-5.238544,2.390582,0.008106,-0.153137,0.094296,2.191347,-0.413133,-0.293231,0.677866,0.021263,0.032226,0.734337,-0.691684,-0.270922,-0.290404,0.603403,1.490631,-0.012462,0.076235,-1.722639,-0.816402,0.035518,-0.022397,0.015151,0.013875,-0.046625,-0.108380,-0.104596,-0.086209,-0.157742,0.161764,0.140609,0.230679,0.180593,0,0
1677190286148000,1.022027,-0.429063,0.415986,0.550497,-2.373135,1.973743,-0.009171,-0.061021,0.113800,2.929785,-0.436304,-0.280489,0.677678,0.019624,0.033036,0.734519,-0.673688,-0.283261,-0.280972,0.622276,1.489982,-0.015948,0.075208,-1.670841,-0.819945,0.046874,-0.004717,0.008528,0.024945,-0.037182,-0.149036,-0.058354,-0.064530,-0.166299,0.156188,0.120481,0.274888,0.216814,0,0
1677190286168000,0.516971,-0.097540,0.333862,1.352332,4.035876,3.267823,-0.092736,-0.061664,0.151658,2.162477,-0.234841,-0.158196,0.676916,0.017899,0.033948,0.735225,-0.658562,-0.292619,-0.276116,0.636150,1.487774,-0.019641,0.074234,-1.627899,-0.827109,0.050401,0.002702,0.008650,0.034395,-0.011869,-0.061447,0.014104,-0.053188,-0.173452,0.156973,0.203680,0.340920,0.178252,0,0
1677190286188000,0.155179,0.287363,-0.184306,1.107476,3.298725,4.749629,-0.251807,-0.055220,0.207566,0.425261,0.054209,-0.046302,0.675177,0.015934,0.035207,0.736808,-0.653585,-0.294087,-0.277262,0.640086,1.482913,-0.024064,0.073486,-1.611331,-0.831452,0.043756,0.002729,0.016588,0.033501,0.008382,0.011456,0.116531,-0.050025,-0.170175,0.164410,0.272025,0.437393,0.146233,0,0
1677190286208000,0.090685,0.426674,-0.323479,0.439698,-1.069290,5.991646,-0.249944,0.051312,0.179501,-0.697591,0.263597,0.038122,0.673457,0.014973,0.036949,0.738315,-0.655916,-0.289379,-0.281349,0.638061,1.478187,-0.027662,0.074826,-1.612202,-0.830642,0.030517,0.001315,0.027437,0.029839,0.015118,-0.002950,0.244131,-0.048467,-0.163934,0.174312,0.268113,0.559148,0.162441,0,0
1677190286228000,-0.063271,-0.004538,-0.167986,-0.275111,-0.339875,5.818948,-0.217456,-0.045139,0.147809,-1.097021,0.453810,0.092425,0.671935,0.013577,0.037755,0.739687,-0.660284,-0.281922,-0.287503,0.634140,1.473984,-0.030657,0.074204,-1.616536,-0.828952,0.011341,-0.003323,0.029791,0.029300,0.007405,-0.002726,0.368607,-0.049452,-0.161776,0.175807,0.267913,0.677047,0.158025,0,0
1677190286248000,-0.173227,0.024578,0.227413,-1.598174,3.178524,6.059482,-0.209494,-0.236651,0.149130,-1.207724,0.742660,-0.116894,0.670390,0.010797,0.037253,0.741159,-0.663029,-0.274033,-0.298020,0.629865,1.469666,-0.033950,0.069794,-1.614531,-0.833666,-0.017911,-0.010299,0.032861,0.036678,-0.026916,0.067903,0.498219,-0.052111,-0.167543,0.178582,0.305367,0.796216,0.086746,0,0
1677190286268000,-0.682958,-0.240607,-0.590684,-0.933857,5.665923,7.651508,-0.302188,-0.283437,0.146204,-1.124134,1.132596,-0.685882,0.668460,0.007859,0.036232,0.742987,-0.661754,-0.268246,-0.315286,0.625277,1.464349,-0.036770,0.064435,-1.600783,-0.852214,-0.059654,-0.027603,0.030766,0.027700,-0.048089,0.188309,0.659993,-0.065716,-0.158241,0.173979,0.396405,0.942407,-0.006270,0,0
1677190286287999,-0.444891,-0.397527,-0.215347,-2.113047,7.446305,6.736770,-0.314677,-0.269841,0.086617,-1.139863,1.541506,-1.130089,0.666264,0.005325,0.034948,0.745041,-0.657596,-0.263062,-0.338397,0.619767,1.458371,-0.038645,0.059250,-1.575925,-0.880616,-0.115639,-0.040271,0.025676,0.026229,-0.092975,0.344343,0.803787,-0.073946,-0.156396,0.167187,0.505544,1.066750,-0.135496,0,0
1677190286307999,-0.162725,-0.192462,-0.800986,-3.742989,7.150661,1.458932,-0.291505,-0.321490,0.040965,-1.568131,1.919704,-1.626843,0.664484,0.002612,0.033065,0.746729,-0.654034,-0.258522,-0.368055,0.608448,1.453551,-0.040053,0.052920,-1.552944,-0.920716,-0.182234,-0.047413,0.024835,0.013042,-0.170580,0.494480,0.842333,-0.077258,-0.142133,0.163285,0.584078,1.087092,-0.282722,0,0
1677190286327999,0.176188,-0.609523,-0.834115,-4.470847,4.180602,-3.143168,-0.182308,-0.375097,0.057191,-2.109624,2.025199,-2.018230,0.663543,-0.000719,0.031074,0.747655,-0.655571,-0.252988,-0.398272,0.589811,1.451008,-0.042326,0.045567,-1.549029,-0.962497,-0.243994,-0.047887,0.015804,-0.000814,-0.262849,0.585224,0.789138,-0.073304,-0.127856,0.151263,0.593237,1.024825,-0.406068,0,0
1677190286347999,-0.105152,-0.624553,0.017401,-4.120053,-4.389209,-6.958970,0.018828,-0.215815,-0.003151,-2.118307,1.921172,-1.984293,0.663713,-0.002275,0.029593,0.747561,-0.657429,-0.245310,-0.425304,0.571836,1.451472,-0.042697,0.041273,-1.542785,-0.996858,-0.306440,-0.054088,0.006629,0.002348,-0.348199,0.504574,0.659919,-0.074268,-0.130739,0.140734,0.446600,0.925909,-0.431124,0,0
1677190286367999,-0.086977,-0.809993,0.639773,-4.286899,-11.396099,-10.505177,0.094852,0.043326,-0.186118,-0.769392,1.716599,-1.772363,0.664116,-0.000650,0.028468,0.747250,-0.652487,-0.242503,-0.445741,0.563049,1.452558,-0.038794,0.041726,-1.511270,-1.025093,-0.365274,-0.060018,-0.006095,0.017942,-0.436968,0.283781,0.460057,-0.074295,-0.146364,0.128007,0.159490,0.800121,-0.394169,0,0
1677190286388000,-0.281996,-1.718743,-0.338145,-3.820528,-9.157671,-12.426850,0.045426,0.094247,-0.375738,1.448074,0.939692,-1.673891,0.664491,0.002699,0.026163,0.746996,-0.638758,-0.253650,-0.454923,0.566522,1.453610,-0.030743,0.042708,-1.459084,-1.052308,-0.396314,-0.069931,-0.036831,0.013957,-0.516478,0.107743,0.222029,-0.078430,-0.144827,0.094816,-0.096420,0.621040,-0.385460,0,0
1677190286408000,-0.152514,-0.750585,-1.306039,-0.934801,-3.712536,-11.013513,0.248016,-0.168832,-0.361523,2.470573,-0.180593,-1.570076,0.666898,0.003989,0.022244,0.744970,-0.624071,-0.276049,-0.454101,0.573050,1.460100,-0.023728,0.038484,-1.424044,-1.082561,-0.384117,-0.077326,-0.048036,-0.009412,-0.538326,0.040594,0.012529,-0.081446,-0.121589,0.078828,-0.218167,0.427219,-0.384066,0,0
1677190286428000,0.039236,-0.198486,0.339420,1.113480,-1.712167,-4.841595,0.289794,-0.235333,-0.180681,2.012079,-0.768633,-1.135068,0.668979,0.003500,0.019325,0.743186,-0.614152,-0.296978,-0.449109,0.577217,1.465693,-0.020656,0.033420,-1.415490,-1.107275,-0.350625,-0.080947,-0.048029,0.000099,-0.519244,0.013431,-0.073288,-0.079809,-0.129651,0.077494,-0.253539,0.336157,-0.357146,0,0
1677190286448000,0.042467,0.159257,1.230093,0.189428,-0.364041,0.313472,-0.097173,-0.070785,-0.038194,0.938119,-0.676219,-0.473081,0.667815,0.003196,0.018593,0.744252,-0.610258,-0.307891,-0.444880,0.578893,1.462561,-0.020077,0.031955,-1.420356,-1.118520,-0.324137,-0.084555,-0.040694,0.027388,-0.518664,0.013204,-0.055773,-0.077757,-0.154641,0.085216,-0.251590,0.344229,-0.351587,0,0
1677190286468000,0.626665,-0.047967,-0.204905,0.307671,-4.075656,1.059805,-0.439851,0.095478,0.115479,0.356729,-0.407468,0.154013,0.664565,0.002804,0.020326,0.747112,-0.610710,-0.309835,-0.439763,0.581282,1.453833,-0.022829,0.034114,-1.429854,-1.113701,-0.305440,-0.076519,-0.037327,0.025937,-0.515719,-0.061287,-0.023115,-0.064783,-0.151157,0.085940,-0.312084,0.376464,-0.310508,0,0
1677190286488000,0.819250,-0.367938,-2.056298,4.148828,-8.711122,-0.661539,-0.284894,-0.019193,0.318962,1.212018,-0.099170,0.390736,0.663222,0.000131,0.022887,0.748236,-0.605994,-0.312341,-0.432068,0.590575,1.450202,-0.030167,0.034445,-1.414132,-1.103042,-0.296396,-0.064659,-0.040180,-0.012586,-0.435934,-0.228522,-0.024683,-0.048863,-0.111552,0.076040,-0.427497,0.372672,-0.161154,0,0
1677190286508000,0.290522,-0.380568,-0.076330,4.726650,-9.354014,-1.994091,0.059389,-0.071499,0.472789,2.892815,0.325568,0.579763,0.663692,-0.003685,0.026090,0.747705,-0.589999,-0.318392,-0.420253,0.611702,1.451444,-0.040152,0.034157,-1.351869,-1.087395,-0.302226,-0.063391,-0.043106,-0.011559,-0.344557,-0.408654,-0.052717,-0.042210,-0.111609,0.070396,-0.550559,0.330781,0.002013,0,0
1677190286528000,-0.366939,0.174957,1.759664,3.134172,-7.570467,-4.630755,0.351248,0.015016,0.513675,4.478711,0.486093,1.005173,0.665677,-0.006786,0.029972,0.745771,-0.564649,-0.327427,-0.400894,0.643069,1.456776,-0.050046,0.035722,-1.261985,-1.063058,-0.304445,-0.075276,-0.034738,0.026134,-0.284972,-0.553156,-0.133318,-0.048111,-0.147288,0.079357,-0.652805,0.225311,0.111811,0,0
1677190286547999,-0.430370,0.767777,1.846742,2.718221,-1.879710,-6.349566,0.257698,0.074562,0.413345,5.125134,0.552180,1.268467,0.666956,-0.008764,0.033469,0.744458,-0.534488,-0.337563,-0.377677,0.676787,1.460224,-0.057725,0.038216,-1.165963,-1.036532,-0.299579,-0.088422,-0.014330,0.065509,-0.233629,-0.583888,-0.248144,-0.055907,-0.183492,0.100017,-0.646787,0.088982,0.149239,0,0
1677190286567999,0.075728,0.374443,1.081329,2.762991,1.943241,-5.108079,0.044428,0.157405,0.344104,4.393844,0.602526,1.642098,0.666825,-0.009910,0.037138,0.744386,-0.508319,-0.342607,-0.354623,0.706235,1.459871,-0.064326,0.042173,-1.088847,-1.005529,-0.288722,-0.091427,-0.001604,0.089512,-0.181292,-0.538206,-0.338009,-0.053587,-0.204935,0.111771,-0.567254,-0.007116,0.150595,0,0
1677190286587999,1.037957,-0.891900,-0.234327,5.096477,6.290771,2.780283,-0.177163,0.217004,0.309014,1.998134,0.713837,1.786577,0.665424,-0.010901,0.041293,0.745406,-0.495800,-0.336799,-0.340396,0.724666,1.456095,-0.071266,0.047190,-1.048721,-0.971391,-0.286296,-0.075156,-0.014017,0.087134,-0.082168,-0.405621,-0.269994,-0.031153,-0.202115,0.096866,-0.410855,0.065634,0.187416,0,0
1677190286607999,1.743446,0.288448,-1.463481,9.324860,3.700589,7.859020,0.025463,0.211018,0.176824,-0.883071,1.131458,2.345931,0.666043,-0.011142,0.044560,0.744662,-0.504277,-0.314416,-0.333239,0.732160,1.457728,-0.076025,0.051694,-1.063878,-0.921476,-0.286398,-0.044730,-0.002637,0.060100,0.101665,-0.324888,-0.100309,0.002428,-0.171446,0.103751,-0.257111,0.204164,0.341538,0,0
1677190286628000,1.327972,1.390839,-0.064078,5.136890,-1.038821,1.702080,0.351066,0.326757,0.057000,-1.687627,1.387355,3.081299,0.668588,-0.009339,0.047555,0.742216,-0.521103,-0.283160,-0.323009,0.737708,1.464495,-0.077530,0.058312,-1.102264,-0.854771,-0.280035,-0.022556,0.030978,0.060978,0.201901,-0.338991,-0.053688,0.027071,-0.166603,0.135063,-0.205606,0.214238,0.439850,0,0
1677190286648000,0.624470,-0.002005,-0.458992,-0.079534,-2.371838,-5.038609,0.158049,0.355144,0.051603,-1.061302,0.584502,3.134478,0.669765,-0.007214,0.050530,0.740982,-0.537698,-0.259016,-0.304565,0.742499,1.467592,-0.078459,0.065468,-1.148896,-0.792579,-0.250032,-0.014383,0.036922,0.053876,0.197991,-0.379801,-0.141823,0.039562,-0.157465,0.136864,-0.230161,0.108450,0.438650,0,0
1677190286668000,0.513515,-0.200795,-0.485183,-0.378002,-3.662229,-3.545364,0.060193,0.345439,0.097486,-0.323619,-0.814420,3.000808,0.670206,-0.005490,0.053748,0.740370,-0.551811,-0.247353,-0.277393,0.746755,1.468727,-0.080260,0.072526,-1.197996,-0.741727,-0.192817,-0.008348,0.039077,0.046165,0.188315,-0.446466,-0.200057,0.050091,-0.148254,0.134519,-0.276068,0.025483,0.463324,0,0
1677190286688000,0.564290,0.061550,-1.050635,-0.132162,-3.687960,-2.339414,-0.148797,0.394447,0.139063,0.809955,-1.808388,2.740269,0.669265,-0.003804,0.057585,0.740944,-0.558532,-0.247322,-0.243824,0.753456,1.466130,-0.082811,0.080606,-1.232418,-0.701101,-0.119553,-0.001203,0.046663,0.027057,0.183780,-0.513690,-0.234155,0.060283,-0.127152,0.136273,-0.315470,-0.036767,0.501445,0,0
1677190286708000,0.090234,-0.764742,-1.172608,-0.951135,1.593473,-3.509739,0.028165,0.204970,0.189925,2.303438,-2.339311,2.529893,0.669800,-0.003620,0.060403,0.740237,-0.554031,-0.256841,-0.205482,0.764946,1.467541,-0.086383,0.084994,-1.240806,-0.669541,-0.037972,-0.003433,0.037908,0.005417,0.163111,-0.475329,-0.291660,0.062342,-0.105958,0.120646,-0.294348,-0.091958,0.446677,0,0
1677190286728000,-0.851038,-0.909462,-1.701242,0.694092,5.612443,-2.871603,0.274089,0.059656,0.222249,3.191870,-2.503239,2.031822,0.672479,-0.004197,0.062128,0.737657,-0.539331,-0.273516,-0.169236,0.778434,1.474774,-0.089872,0.086470,-1.225634,-0.654015,0.039765,-0.024372,0.026439,-0.026891,0.175610,-0.356628,-0.336424,0.045191,-0.076003,0.099610,-0.201375,-0.102988,0.354372,0,0
1677190286748000,-1.398143,-0.970908,-0.426228,-2.014462,7.874624,1.398481,0.368832,0.156985,0.166962,2.710567,-2.158704,1.571302,0.675258,-0.003389,0.063925,0.734964,-0.522564,-0.287183,-0.139958,0.790660,1.482300,-0.091441,0.089884,-1.201288,-0.644003,0.098719,-0.056123,0.013921,-0.033798,0.134223,-0.192722,-0.295826,0.019281,-0.072330,0.078817,-0.154654,-0.013949,0.219348,0,0
1677190286768000,-1.245960,-0.957012,0.266049,-5.084109,8.755953,7.882739,0.484001,0.167830,0.052586,1.805901,-1.520945,1.145379,0.678587,-0.001717,0.065029,0.731801,-0.509855,-0.294239,-0.118614,0.799790,1.491370,-0.090893,0.093366,-1.180339,-0.633055,0.137237,-0.084690,0.001858,-0.026959,0.031744,-0.011223,-0.125601,-0.002498,-0.082008,0.059743,-0.199982,0.195087,0.075582,0,0
1677190286787999,-0.088714,-1.203150,0.238105,-4.538103,1.466694,8.030546,0.597401,0.148642,-0.103965,1.403494,-0.876457,0.741502,0.682757,0.000466,0.065292,0.727890,-0.499689,-0.296888,-0.103752,0.807252,1.502807,-0.088595,0.096213,-1.160262,-0.622435,0.159684,-0.089962,-0.014954,-0.020783,-0.059495,0.024461,0.047502,-0.000946,-0.089054,0.037757,-0.314261,0.338395,0.051456,0,0
1677190286807999,1.803560,-0.995890,-0.451127,-3.774100,-0.561572,6.296386,0.817351,0.248609,-0.227180,1.511822,-0.356160,0.477136,0.688738,0.003618,0.066001,0.722161,-0.487853,-0.296845,-0.093050,0.815766,1.519343,-0.085795,0.100852,-1.131842,-0.612730,0.169261,-0.057227,-0.027451,-0.028497,-0.135119,0.019552,0.185827,0.036357,-0.078026,0.022317,-0.424429,0.431014,0.058692,0,0
1677190286827999,2.466187,-0.355428,-1.373927,-1.590937,3.024067,4.756432,0.790556,0.387746,-0.227418,0.680867,0.216682,0.138137,0.694710,0.007617,0.067794,0.716219,-0.480346,-0.294004,-0.091307,0.821424,1.536036,-0.083381,0.108280,-1.109398,-0.607385,0.161989,-0.011068,-0.026972,-0.054773,-0.166730,0.086335,0.293241,0.083567,-0.046285,0.020132,-0.456485,0.540086,0.029364,0,0
1677190286847999,1.718903,-0.191173,-0.685903,0.987027,1.380754,1.431858,0.777459,0.494812,-0.100401,-1.280442,0.838176,0.052318,0.700213,0.011762,0.071024,0.710467,-0.489374,-0.285897,-0.099125,0.818045,1.551608,-0.082845,0.118070,-1.122796,-0.600158,0.143034,0.020326,-0.023047,-0.067397,-0.146418,0.120233,0.334034,0.116941,-0.029351,0.020639,-0.433620,0.582368,0.028705,0,0
1677190286867999,0.995887,0.233140,0.072187,1.338281,-3.212037,-1.335843,0.880811,0.586467,0.018226,-2.225150,1.310997,0.218123,0.706057,0.016080,0.075486,0.704111,-0.507645,-0.271937,-0.109770,0.810282,1.568339,-0.084049,0.129830,-1.155206,-0.584929,0.118054,0.037448,-0.010478,-0.064967,-0.118704,0.062262,0.319327,0.137044,-0.028929,0.028693,-0.426699,0.533411,0.081965,0,0
1677190286888000,1.138402,0.217965,-0.091641,-0.327613,-3.879781,-4.571105,0.815707,0.631151,0.022114,-1.433429,1.378101,0.278163,0.711383,0.020591,0.080344,0.698070,-0.520355,-0.257773,-0.117597,0.805735,1.583820,-0.085668,0.142469,-1.174431,-0.567798,0.093553,0.057619,0.001938,-0.065923,-0.123922,-0.009073,0.239751,0.159505,-0.024672,0.036732,-0.435841,0.418856,0.107488,0,0
1677190286908000,1.357815,1.128298,0.849362,0.132960,-2.381096,-5.443048,0.701583,0.727606,0.000805,0.346729,1.060546,0.126570,0.715437,0.025819,0.085808,0.693085,-0.518619,-0.249436,-0.120660,0.809014,1.595920,-0.087102,0.157126,-1.161792,-0.557124,0.074872,0.082382,0.032707,-0.048167,-0.119531,-0.050439,0.142562,0.187702,-0.038728,0.062865,-0.419838,0.302114,0.107678,0,0
1677190286928000,1.782855,0.457265,0.121052,2.806555,0.412002,-6.367572,0.467008,0.821121,0.039042,2.157343,0.371835,-0.208321,0.717947,0.031045,0.092425,0.689413,-0.501700,-0.251934,-0.119326,0.819048,1.603752,-0.090029,0.173585,-1.118983,-0.561463,0.067768,0.115857,0.050195,-0.045086,-0.061266,-0.035942,0.026690,0.222985,-0.036065,0.076805,-0.326405,0.198500,0.082649,0,0
1677190286948000,1.731416,-0.938628,-0.710386,4.150245,3.870844,-2.817394,0.501581,0.829272,0.092991,2.787768,0.012584,-0.429794,0.720971,0.035875,0.099529,0.685021,-0.477190,-0.259709,-0.117378,0.831460,1.613160,-0.094506,0.190072,-1.060882,-0.575075,0.062804,0.148522,0.039898,-0.058741,0.024282,0.047735,-0.018383,0.256330,-0.015157,0.063700,-0.199571,0.196381,0.046450,0,0
1677190286968000,0.811015,-0.615268,0.280122,4.257798,4.474460,-1.518328,0.744521,0.820809,0.059226,2.098057,-0.309688,-0.545362,0.725200,0.041473,0.105930,0.679257,-0.457574,-0.269661,-0.116575,0.839390,1.626343,-0.097452,0.206496,-1.017303,-0.593643,0.061654,0.163002,0.036194,-0.052691,0.112394,0.143493,-0.037692,0.274981,-0.017041,0.054439,-0.074048,0.226713,0.016184,0,0
1677190286988000,0.053907,-0.421612,1.162073,3.904150,3.830545,-1.541649,0.687175,0.798563,-0.039281,1.516327,-0.505024,-0.727164,0.728592,0.047850,0.111262,0.674337,-0.442544,-0.281162,-0.117675,0.843509,1.637418,-0.097751,0.222672,-0.986262,-0.616861,0.061740,0.162567,0.036483,-0.029106,0.193847,0.226385,-0.057697,0.282619,-0.039289,0.046327,0.040147,0.251707,-0.006215,0,0
1677190287008000,0.091653,-0.539469,1.182076,2.759346,3.095455,-2.277652,0.582146,0.803392,-0.180925,0.780276,-0.623648,-0.905161,0.731115,0.055161,0.115727,0.670284,-0.433707,-0.293393,-0.121474,0.843393,1.646336,-0.095417,0.239146,-0.970892,-0.643825,0.062041,0.163119,0.034525,-0.005221,0.252818,0.294591,-0.092662,0.291594,-0.061308,0.035705,0.135290,0.256315,-0.036109,0,0
1677190287028000,0.579935,-0.889715,0.299074,2.948045,3.359220,-2.607373,0.581402,0.868641,-0.338756,-0.420701,-0.853671,-1.053535,0.733742,0.063892,0.119737,0.665920,-0.434817,-0.306884,-0.129041,0.836872,1.656145,-0.090744,0.257098,-0.981587,-0.676239,0.065296,0.173670,0.025665,0.000905,0.315974,0.368090,-0.134471,0.306148,-0.062865,0.020269,0.239424,0.258441,-0.066966,0,0
1677190287047999,0.464071,-0.044905,-0.767668,3.099840,1.747396,-2.347127,0.728777,0.831741,-0.436669,-1.037444,-0.984684,-1.213788,0.737585,0.073392,0.122545,0.660160,-0.441016,-0.320840,-0.138877,0.826761,1.670118,-0.083973,0.274449,-1.006531,-0.711552,0.070501,0.182142,0.033795,-0.014397,0.382573,0.409375,-0.171335,0.311495,-0.046185,0.023340,0.328177,0.245009,-0.069462,0,0
1677190287067999,-0.417058,0.124783,-0.385320,1.916346,0.218285,-1.928468,0.727106,0.685021,-0.405497,-0.692088,-0.983910,-1.412515,0.741358,0.081974,0.124164,0.654598,-0.443873,-0.335334,-0.148753,0.817713,1.684003,-0.076855,0.288941,-1.024103,-0.748400,0.074319,0.173228,0.045405,-0.022144,0.425903,0.420100,-0.200092,0.301837,-0.042153,0.027701,0.379424,0.219375,-0.062412,0,0
1677190287087999,-0.918509,-0.428226,1.030767,1.257913,-0.981979,-1.654684,0.744684,0.489724,-0.263660,0.152621,-0.971295,-1.529788,0.745041,0.088355,0.125148,0.649377,-0.439448,-0.350898,-0.156425,0.812120,1.697208,-0.071791,0.299402,-1.024170,-0.785847,0.076935,0.154524,0.046031,-0.001654,0.456456,0.406846,-0.223648,0.291467,-0.066424,0.016978,0.405207,0.184075,-0.046524,0,0
1677190287107999,-0.661675,-0.806458,1.399933,1.186434,-1.109983,-1.605806,0.674238,0.273853,-0.105553,0.969097,-0.976227,-1.538214,0.748507,0.091940,0.125740,0.644763,-0.428173,-0.367618,-0.161165,0.809817,1.708962,-0.069732,0.305224,-1.007606,-0.823339,0.079181,0.141195,0.039159,0.026138,0.485959,0.391058,-0.246506,0.288527,-0.094895,-0.002072,0.427952,0.148057,-0.029633,0,0
1677190287128000,0.054678,-0.448983,-0.038729,0.432003,-1.905899,-1.433562,0.506105,0.126579,-0.078361,1.436151,-1.054511,-1.449394,0.751600,0.093960,0.125730,0.640863,-0.413565,-0.384804,-0.162755,0.809108,1.719107,-0.068620,0.307945,-0.983907,-0.859192,0.084165,0.142430,0.039493,0.025081,0.500740,0.359378,-0.266203,0.290179,-0.092966,-0.009102,0.430123,0.104390,-0.014351,0,0
1677190287148000,0.242378,-0.600256,-1.581750,0.402178,-2.077924,-1.366247,0.480644,0.056403,-0.165577,1.438615,-1.172931,-1.466885,0.755045,0.096156,0.124604,0.636694,-0.398872,-0.402781,-0.163828,0.807518,1.730449,-0.065767,0.309443,-0.961666,-0.896583,0.090972,0.147654,0.036848,-0.006906,0.515276,0.324284,-0.284843,0.285800,-0.060360,-0.013964,0.429675,0.059241,0.001824,0,0
1677190287168000,0.323607,-0.998137,-1.290581,-0.024156,-1.953375,-0.763539,0.592920,0.001424,-0.323318,0.867920,-1.175585,-1.513897,0.759048,0.099296,0.121994,0.631940,-0.388290,-0.419624,-0.167433,0.803347,1.743946,-0.059736,0.310429,-0.949115,-0.934383,0.095789,0.154734,0.026283,-0.033132,0.521619,0.291708,-0.291720,0.284682,-0.031190,-0.027147,0.419121,0.024160,0.013394,0,0
