Time (s),Gyroscope X (deg/s),Gyroscope Y (deg/s),Gyroscope Z (deg/s),Accelerometer X (g),Accelerometer Y (g),Accelerometer Z (g)
0.0,-297.640015,29.540001,-49.560001,0.2505375,-1.9164801,-0.6173703
0.01959991455078125,-187.389999,-8.54,-49.490002,0.3012671,-0.7961205,-0.247666
0.0392000675201416,-225.470001,-34.860001,-51.66,0.3012671,-0.7961205,-0.247666
0.05879998207092285,-234.149994,-46.130001,-66.360001,0.4044014,-0.4158874,-0.2656128
0.07899999618530273,-183.470001,-40.25,-82.25,0.5166288,-0.7970777,-0.0866233
0.09859991073608398,-135.660004,-33.880001,-86.940002,0.4814531,-1.4067906,-0.1474031
0.11820006370544434,11.97,-35.349998,-84.0,0.4814531,-1.4067906,-0.1474031
0.13779997825622559,292.040009,-35.0,-72.660004,0.3773616,-2.3373926,-0.2385729
0.15799999237060547,546.630005,-31.219999,-57.889999,0.6305313,-2.4505772,-0.1959792
0.17759990692138672,603.75,-21.280001,-36.330002,0.5893733,-0.4563276,-0.4651814
0.19720005989074707,431.76001,-15.82,-5.67,0.5893733,-0.4563276,-0.4651814
0.21679997444152832,52.009998,-24.219999,20.790001,0.6511103,0.6932255,-0.0141182
0.2369999885559082,-122.290001,-8.54,50.189999,0.9636241,0.2818846,0.3161031
0.25659990310668945,-75.949997,13.23,69.090004,0.5314649,-1.4319162,0.2950456
0.2762000560760498,-30.52,16.309999,66.220001,0.5314649,-1.4319162,0.2950456
0.29579997062683105,-27.23,17.5,64.470001,0.3864547,-0.900212,0.5690335
0.31599998474121094,-34.720001,7.63,49.0,0.5379257,-1.3089208,1.0354114
0.3355998992919922,-68.18,0.91,33.670002,0.3012671,-0.2457517,0.1529068
0.35520005226135254,-135.940002,13.86,9.45,0.4915033,-0.1277813,0.1600855
0.3747999668121338,-256.130005,51.52,-11.76,0.5788445,-0.0382865,0.6085166
0.39499998092651367,-369.600006,77.769997,-8.75,0.5637691,0.3917191,0.8403893
0.4145998954772949,-297.570007,81.970001,-13.37,0.5451045,-0.8009064,0.2759023
0.4342000484466553,-261.519989,76.580002,-8.89,0.5920054,-0.8348856,-0.2713558
0.4537999629974365,-220.639999,48.580002,-6.44,0.5920054,-0.8348856,-0.2713558
0.47499990463256836,-87.849998,18.34,-14.49,0.4240233,-1.123949,-0.6341207
0.4946000576019287,7.56,-7.63,-42.84,0.4240233,-1.123949,-0.6341207
0.51419997215271,70.139999,-30.52,-86.519997,0.3400322,-0.716676,-0.6094737
0.5337998867034912,169.050003,-43.400002,-122.639999,0.2596305,-0.6290956,-0.5183039
0.5539999008178711,331.940002,-43.259998,-136.710007,0.3201711,-1.3381142,-0.483846
0.5736000537872314,376.390015,-37.73,-105.419998,0.3201711,-1.3381142,-0.483846
0.5931999683380127,226.800003,-38.220001,-32.41,0.5467795,-0.1749216,-0.2677664
0.612799882888794,91.699997,-28.0,45.150002,0.7542446,-0.639385,0.3345285
0.6329998970031738,72.029999,22.33,89.389999,0.8446965,-1.4189945,0.3239998
0.6526000499725342,96.040001,72.660004,85.959999,0.4379022,-0.6824574,0.3874118
0.6721999645233154,4.34,92.610001,75.110001,0.4379022,-0.6824574,0.3874118
0.6917998790740967,-179.130005,86.309998,103.110001,0.4728386,0.3122745,0.185929
0.7130000591278076,-246.259995,83.440002,107.099998,0.6949005,-0.4749923,0.3543897
0.7325999736785889,-226.589996,53.130001,89.809998,0.630292,-1.2234939,0.1569748
0.7521998882293701,-334.390015,11.06,81.970001,0.3058136,-0.3405108,-0.6257455
0.7718000411987305,-352.799988,-15.82,49.98,0.429527,-1.1464422,-0.3132317
0.7929999828338623,-299.25,-30.1,-9.73,0.429527,-1.1464422,-0.3132317
0.8125998973846436,-278.529999,-45.849998,-57.119999,0.6690571,-0.0480975,-0.2220619
0.8322000503540039,-195.300003,-40.950001,-98.349998,0.9021263,-0.5750158,-0.2175153
0.8517999649047852,-88.690002,-28.280001,-117.110001,0.7482624,-1.4565632,0.1804253
0.871999979019165,5.67,-31.5,-111.93,0.590809,-1.5838658,-0.0887769
0.8915998935699463,153.160004,-19.040001,-119.980003,0.5168682,-1.6266989,-0.4323985
0.9112000465393066,278.25,-17.710001,-131.110001,0.2969599,-1.1275383,-0.5250041
0.9307999610900879,243.949997,10.99,-69.860001,0.2969599,-1.1275383,-0.5250041
0.9509999752044678,108.779999,51.799999,8.47,0.9518989,-0.6762358,-0.0892555
0.970599889755249,111.230003,79.730003,60.48,0.4199553,-1.5283504,0.1588891
0.9902000427246094,183.960007,114.029999,69.019997,0.6932255,-0.450106,-0.1971756
1.0097999572753906,122.150002,118.790001,86.029999,0.6932255,-0.450106,-0.1971756
1.0309998989105225,32.619999,113.400002,98.910004,0.461592,-0.3321357,-0.1832968
1.0506000518798828,-106.190002,99.959999,110.110001,0.6111487,-0.3936334,-0.343143
1.070199966430664,-120.190002,73.709999,107.590004,0.4946141,-0.4400558,-0.80306
1.0897998809814453,-79.029999,33.740002,93.590004,0.195022,-1.2129651,-0.659964
1.1099998950958252,-47.18,-11.55,75.110001,0.1770752,-0.5668799,-0.7616626
1.1296000480651855,-27.440001,-62.93,34.02,0.3175389,-0.1732466,-1.0038249
1.1491999626159668,-113.400002,-95.199997,0.0,0.3175389,-0.1732466,-1.0038249
1.168799877166748,-181.160004,-99.75,-23.940001,0.4950927,-0.5967913,0.0777695
1.188999891281128,-216.020004,-94.989998,-16.030001,0.7705164,-0.5056215,0.0538404
1.2086000442504883,-105.209999,-86.169998,7.28,0.4326378,-2.4311947,-0.1598463
1.2281999588012695,50.189999,-77.629997,26.530001,0.4326378,-2.4311947,-0.1598463
1.2477998733520508,180.320007,-72.169998,41.509998,0.3895654,-1.9667311,-0.0533619
1.2679998874664307,387.380005,-40.040001,34.02,0.3232819,-1.8772364,-0.2333085
1.287600040435791,458.5,-3.29,14.21,0.4989213,0.6381886,0.007418
1.3071999549865723,162.190002,26.530001,46.060001,0.4989213,0.6381886,0.007418
1.3267998695373535,93.730003,31.15,62.16,0.3988978,-0.4314413,0.4984427
1.3480000495910645,174.300003,15.82,41.02,0.1220383,-0.9152873,-0.1811431
1.3675999641418457,211.539993,1.96,17.43,0.1220383,-0.9152873,-0.1811431
1.387199878692627,160.720001,-10.01,-4.13,0.0942806,-0.50275,-0.0945199
1.4068000316619873,66.5,-18.549999,-12.04,0.181861,-0.5156717,0.1529068
1.4270000457763672,14.35,-24.639999,-20.719999,0.2775773,-0.8387143,0.1789895
1.4465999603271484,-11.34,-30.59,-25.48,0.2775773,-0.8387143,0.1789895
1.4661998748779297,-32.830002,-40.459999,-24.43,0.279731,-0.8001884,0.1746823
1.48580002784729,60.27,-30.73,-29.610001,0.2706379,-1.4450772,0.2529304
1.5069999694824219,121.029999,-24.360001,-31.290001,0.2706379,-1.4450772,0.2529304
1.5265998840332031,30.940001,-24.92,-19.110001,0.2912169,-0.8133494,0.2754237
1.5462000370025635,-65.169998,-21.98,-2.17,0.2242155,-0.8997334,0.1718108
1.5657999515533447,-156.169998,-25.969999,-4.69,0.2242155,-0.8997334,0.1718108
1.5869998931884766,-239.75,-9.52,-7.84,0.2543661,-0.0624549,0.0581477
1.606600046157837,-275.450012,7.63,-13.58,0.4477131,-0.7958812,0.1536247
1.6261999607086182,-234.220001,14.21,-7.49,0.4477131,-0.7958812,0.1536247
1.6457998752593994,-33.599998,17.15,5.32,0.4362271,-1.8731684,-0.3491253
1.6659998893737793,139.369995,4.13,-0.07,0.3400322,-2.2404799,-0.2955241
1.6856000423431396,162.610001,-2.17,-6.58,0.4120588,-0.7286405,0.1651107
1.705199956893921,75.459999,-14.77,3.71,0.4120588,-0.7286405,0.1651107
1.7247998714447021,39.27,-28.42,12.11,0.4044014,-0.8703007,0.1792288
1.744999885559082,84.279999,-21.77,11.27,0.3711401,-1.3175352,0.0686765
1.7646000385284424,26.110001,-9.8,16.59,0.4572847,-0.5379257,0.2409658
1.7841999530792236,-73.57,-1.54,25.34,0.4572847,-0.5379257,0.2409658
1.803800106048584,-72.239998,3.22,23.66,0.2790131,-1.4658955,0.19909
1.8239998817443848,12.95,3.29,10.29,0.2790131,-1.4658955,0.19909
1.8436000347137451,39.759998,-3.99,15.54,0.1450102,-0.6963363,-0.0670014
1.8631999492645264,-11.41,-16.1,17.01,0.1304135,-0.5178253,-0.0201004
1.8828001022338867,-79.309998,-25.48,12.6,0.2232583,-0.7152402,0.0906912
1.9040000438690186,-106.400002,-23.450001,5.95,0.290499,-0.6975327,0.0033501
1.9235999584197998,-119.699997,-21.629999,0.56,0.290499,-0.6975327,0.0033501
1.943199872970581,-120.540001,-26.6,3.71,0.2084223,-0.8224425,-0.1500353
1.9628000259399414,-80.989998,-33.25,3.57,0.3259141,-1.398894,-0.0062216
1.9830000400543213,-59.849998,-31.360001,0.07,0.3251962,-0.7317513,-0.001675
2.0025999546051025,-81.970001,-27.16,-4.69,0.3251962,-0.7317513,-0.001675
2.022200107574463,-108.360001,-22.049999,-12.95,0.2282834,-0.9918604,-0.0155539
2.041800022125244,-73.849998,-17.85,-20.370001,0.3653971,-1.3687434,-0.2120116
2.062000036239624,-3.57,-11.06,-13.86,0.3716186,-1.2086578,-0.5262005
2.0815999507904053,20.51,-16.66,1.96,0.3716186,-1.2086578,-0.5262005
2.1012001037597656,-10.08,-33.459999,15.47,0.0875804,-0.8904011,-0.4508239
2.120800018310547,-46.830002,-34.509998,17.5,0.2761416,-0.678868,0.1246705
2.1419999599456787,-62.369999,-18.200001,16.17,0.2761416,-0.678868,0.1246705
2.16159987449646,-49.349998,-9.1,20.51,0.5070572,-0.954531,-0.162957
2.1812000274658203,-4.69,-7.0,27.02,0.376883,-1.2957598,-0.1385494
2.2007999420166016,12.11,3.36,24.219999,0.4024871,-0.4955713,-0.0918877
2.2209999561309814,8.54,9.1,22.540001,0.4024871,-0.4955713,-0.0918877
2.2405998706817627,11.55,6.44,3.29,0.3338107,-1.0330184,-0.1907148
2.260200023651123,-1.89,4.55,-6.23,0.4012907,-0.8662328,-0.2424016
2.2797999382019043,-8.82,8.26,-13.65,0.4075122,-0.8269891,-0.0856661
2.299999952316284,-24.290001,14.77,-21.210001,0.4075122,-0.8269891,-0.0856661
2.3196001052856445,-28.559999,13.51,-24.15,0.3062922,-1.2120079,-0.2957634
2.339200019836426,24.710001,13.65,-36.049999,0.1919112,-0.9183981,-0.0727444
2.358799934387207,21.49,19.74,-38.779999,0.2450338,-0.7396479,-0.1734858
2.379999876022339,-1.89,29.120001,-39.830002,0.2450338,-0.7396479,-0.1734858
2.399600028991699,-5.11,35.279999,-33.459999,0.3000707,-0.8999727,-0.1328064
2.4191999435424805,6.02,36.470001,-36.400002,0.3139495,-0.7441944,-0.273988
2.438800096511841,12.88,43.68,-46.549999,0.3139495,-0.7441944,-0.273988
2.4600000381469727,-0.77,42.420002,-52.009998,0.4345521,-0.703515,-0.4570455
2.479599952697754,-10.22,36.259998,-53.200001,0.4345521,-0.703515,-0.4570455
2.4992001056671143,-2.31,32.549999,-51.029999,0.3371608,-0.9045193,-0.2790131
2.5188000202178955,14.56,27.860001,-53.34,0.4168446,-0.7200261,-0.2897812
2.5390000343322754,-18.34,19.950001,-48.93,0.5355328,-0.8703007,-0.5728622
2.5585999488830566,-45.009998,15.54,-35.139999,0.4836067,-1.4776208,-0.4814531
2.578200101852417,-11.97,8.61,-12.04,0.2816453,-1.5592189,-0.3773616
2.5978000164031982,22.049999,2.59,9.17,0.3610898,-1.0380435,-0.1007414
2.618000030517578,12.39,-1.61,18.83,0.3330928,-0.6367528,-0.1631963
2.6375999450683594,-12.6,-10.57,18.549999,0.4024871,-0.6238311,-0.1531461
2.6572000980377197,-22.82,-17.15,9.1,0.4024871,-0.6238311,-0.1531461
2.676800012588501,5.74,-19.74,2.31,0.4836067,-1.1878396,-0.2766202
2.697999954223633,17.08,-24.360001,3.99,0.4836067,-1.1878396,-0.2766202
2.717600107192993,6.23,-27.16,9.38,0.3603719,-0.7985134,-0.1840146
2.7372000217437744,-7.77,-28.630001,10.22,0.4187589,-0.8334499,-0.2376158
2.7567999362945557,-7.7,-26.25,7.7,0.4084694,-0.863122,-0.3180175
2.7769999504089355,-5.6,-27.93,5.11,0.4084694,-0.863122,-0.3180175
2.796600103378296,3.85,-24.780001,1.89,0.4946141,-0.7865489,-0.1438138
2.816200017929077,-8.12,-16.379999,-1.33,0.5951162,-0.5989449,-0.1251491
2.8357999324798584,-35.0,-5.25,-2.94,0.5888947,-0.6247883,0.0093323
2.8559999465942383,-42.84,1.33,-14.56,0.5025107,-0.6278991,-0.1567355
2.8756000995635986,-18.969999,3.29,-21.700001,0.5025107,-0.6278991,-0.1567355
2.89520001411438,8.47,0.42,-21.559999,0.5482152,-0.9514202,-0.5070572
2.914799928665161,-11.2,-4.62,-8.12,0.5343364,-1.1342384,-0.3524754
2.934999942779541,-13.16,-3.5,3.01,0.4460381,-0.9466345,-0.1641535
2.9546000957489014,-7.91,8.75,3.22,0.4460381,-0.9466345,-0.1641535
2.9742000102996826,1.75,18.620001,-1.47,0.4422094,-0.8023421,-0.1351993
2.993799924850464,14.21,20.23,-4.06,0.4840853,-0.8848974,-0.3577398
3.015000104904175,22.82,14.7,-0.49,0.4436451,-1.0263183,-0.3917191
3.034600019454956,27.719999,9.45,4.34,0.4515418,-0.8250747,-0.3060529
3.0541999340057373,5.39,7.07,4.9,0.5549154,-0.6020557,-0.2452731
3.0738000869750977,3.22,6.79,-5.95,0.5549154,-0.6020557,-0.2452731
3.0940001010894775,22.33,4.62,-18.129999,0.4993999,-0.9107409,-0.3704222
3.113600015640259,29.4,1.75,-17.99,0.557069,-0.8669506,-0.301985
3.13319993019104,19.950001,0.7,-10.22,0.4910247,-0.7987527,-0.2656128
3.1528000831604004,4.41,-1.68,-1.4,0.4910247,-0.7987527,-0.2656128
3.1740000247955322,7.35,2.03,-1.26,0.4972463,-0.956924,-0.2486232
3.1935999393463135,28.210001,2.73,-5.32,0.4773852,-0.8315355,-0.2242155
3.213200092315674,33.529999,-3.43,-8.89,0.4773852,-0.8315355,-0.2242155
3.232800006866455,17.01,-13.79,-9.03,0.5714264,-0.5920054,-0.2842775
3.253999948501587,2.31,-12.81,-9.31,0.5453437,-0.7152402,-0.2938491
3.2736001014709473,1.82,-8.4,-12.95,0.6142595,-0.8772401,-0.2110545
3.2932000160217285,28.98,-4.76,-18.9,0.547976,-0.8621648,-0.1634356
3.3127999305725098,40.110001,-1.54,-22.82,0.5558725,-0.7202653,-0.1732466
3.3329999446868896,29.960001,9.66,-29.190001,0.5812374,-0.4529775,-0.0746587
3.35260009765625,-3.15,17.780001,-31.15,0.5812374,-0.4529775,-0.0746587
3.3722000122070312,-26.18,21.700001,-23.73,0.5474974,-0.9846817,-0.3852582
3.3917999267578125,-35.700001,23.309999,-12.95,0.4111016,-1.1019341,-0.2617841
3.4119999408721924,-14.35,13.3,1.89,0.3519968,-1.1902325,-0.268245
3.4316000938415527,13.51,0.14,10.22,0.3519968,-1.1902325,-0.268245
3.451200008392334,17.780001,1.61,20.58,0.354629,-1.2129651,-0.1866468
3.4707999229431152,9.8,2.52,30.940001,0.3912405,-0.9255769,-0.2036365
3.492000102996826,11.06,2.38,33.110001,0.4340735,-0.4187589,-0.1952613
3.5116000175476074,-6.72,-4.41,22.82,0.3610898,-0.4331164,-0.1655892
3.5311999320983887,-32.130001,-20.719999,13.37,0.5017928,-0.8183745,-0.3658756
3.550800085067749,-29.75,-31.99,15.68,0.5017928,-0.8183745,-0.3658756
3.571000099182129,-22.75,-38.5,14.77,0.589134,-1.1174881,-0.4245019
3.59060001373291,-43.259998,-38.220001,19.67,0.6068415,-0.8432608,-0.007418
3.6101999282836914,-43.75,-28.0,13.51,0.6690571,-0.6944219,0.1567355
3.6298000812530518,-38.080002,-14.7,8.75,0.6690571,-0.6944219,0.1567355
3.6500000953674316,-4.97,-2.17,10.99,0.5936805,-0.9736743,-0.0303899
3.669600009918213,12.46,9.73,12.11,0.551326,-0.744673,-0.1194061
3.689199924468994,5.95,22.75,5.04,0.5922448,-0.3969835,-0.0550369
3.7088000774383545,-18.48,28.559999,-12.74,0.5922448,-0.3969835,-0.0550369
3.7290000915527344,-33.389999,23.73,-31.08,0.557069,-0.3376393,-0.2225405
3.7486000061035156,-24.57,12.81,-36.68,0.4524989,-1.0732193,-0.3950691
3.768199920654297,-2.52,11.2,-25.690001,0.5168682,-1.1129416,-0.2397694
3.7878000736236572,-14.28,17.219999,-8.05,0.5168682,-1.1129416,-0.2397694
3.809000015258789,-23.24,14.35,3.57,0.3756866,-1.0679549,-0.523329
3.8285999298095703,3.92,4.62,11.69,0.427852,-1.0933197,-0.4692493
3.8482000827789307,15.26,-6.16,16.379999,0.427852,-1.0933197,-0.4692493
3.867799997329712,1.12,-11.9,18.9,0.5305077,-0.7485016,-0.3522361
3.888000011444092,10.5,-10.22,15.89,0.5498903,-0.9088264,-0.2462302
3.907599925994873,33.599998,0.21,8.4,0.6276598,-0.7071043,-0.0270399
3.9272000789642334,25.76,2.52,5.6,0.6276598,-0.7071043,-0.0270399
3.9467999935150146,32.689999,2.03,3.71,0.5726229,-0.8303391,0.013161
3.9670000076293945,26.6,1.19,-0.21,0.6066022,-0.6477602,-0.3175389
3.986599922180176,12.74,2.66,-3.5,0.5711872,-0.8815474,-0.1277813
4.006200075149536,17.15,6.72,-9.24,0.5711872,-0.8815474,-0.1277813
4.025799989700317,12.32,4.69,-4.76,0.5202182,-0.6257455,-0.027997
4.046999931335449,16.52,-7.35,-4.76,0.4216304,-0.7889418,-0.5166288
4.06660008430481,6.93,-23.59,1.12,0.4216304,-0.7889418,-0.5166288
4.086199998855591,32.060001,-21.49,3.99,0.4400558,-1.0492902,-0.4938962
4.105799913406372,55.369999,0.14,6.65,0.5197396,-0.6441709,0.1651107
4.127000093460083,38.57,14.0,-1.26,0.5197396,-0.6441709,0.1651107
4.146600008010864,0.84,10.29,-3.5,0.4874354,-0.9432844,-0.3285463
4.1661999225616455,13.3,-0.98,2.94,0.5642478,-1.3268676,-0.4510632
4.185800075531006,48.439999,-10.22,12.04,0.5642478,-1.3268676,-0.4510632
4.206000089645386,29.889999,-17.780001,12.81,0.5056215,-1.0189003,-0.3575005
4.225600004196167,-10.64,-18.27,12.04,0.5812374,-0.7523303,0.0480975
4.245199918746948,-14.98,-10.22,9.94,0.5726229,-0.7583126,0.0906912
4.264800071716309,-21.559999,-1.96,6.09,0.5726229,-0.7583126,0.0906912
4.2850000858306885,-41.580002,2.24,0.35,0.5592226,-0.6101916,0.0023929
4.30460000038147,-59.080002,1.61,-10.85,0.429527,-0.5240469,-0.223019
4.324199914932251,-63.630001,-7.7,-16.379999,0.3579791,-0.8750865,-0.4601563
4.343800067901611,-37.59,-18.129999,-21.35,0.3579791,-0.8750865,-0.4601563
4.365000009536743,-19.67,-20.58,-24.290001,0.403205,-0.7130866,-0.260827
4.384599924087524,-30.450001,-19.67,-23.59,0.4769066,-0.4539347,-0.3249569
4.404200077056885,-33.880001,-20.23,-40.18,0.4769066,-0.4539347,-0.3249569
4.423799991607666,-22.469999,-19.110001,-51.029999,0.6338813,-0.5649656,-0.2926527
4.444000005722046,3.15,-3.71,-41.09,0.8765223,-1.2577125,0.0009572
4.463599920272827,27.860001,19.389999,-31.219999,0.7717129,-0.6841324,0.0555155
4.4832000732421875,9.73,35.84,-37.170002,0.7717129,-0.6841324,0.0555155
4.502799987792969,-18.549999,42.420002,-40.880001,0.8418251,-0.2491017,-0.2792524
4.523000001907349,10.08,40.459999,-32.41,0.6822181,-1.2426372,-0.450106
4.54259991645813,47.880001,31.639999,-28.559999,0.5374472,-0.5580262,-0.5096894
4.56220006942749,12.39,27.860001,-32.060001,0.5374472,-0.5580262,-0.5096894
4.5817999839782715,-53.060001,24.92,-34.299999,0.5544368,0.1146203,-0.3981799
4.602999925613403,-58.310001,16.309999,-26.25,0.3886083,-1.1883182,-0.659964
4.622600078582764,-42.279999,7.28,3.15,0.3886083,-1.1883182,-0.659964
4.642199993133545,-52.779999,0.0,39.130001,0.1840146,-1.3730507,-0.3603719
4.661799907684326,-70.559998,-2.52,72.309998,0.3933941,-1.385733,-0.2821239
4.681999921798706,-39.830002,-0.21,93.800003,0.4594384,-1.1895146,-0.0382865
4.701600074768066,-38.709999,-0.49,88.059998,0.4594384,-1.1895146,-0.0382865
4.721199989318848,-50.189999,-12.18,69.300003,0.4692493,-0.2680057,-0.0102895
4.740799903869629,-26.6,-21.49,42.560001,0.6685785,-0.7817631,-0.4137338
4.760999917984009,3.71,-27.09,19.530001,0.6532639,-0.611388,-0.3065315
4.780600070953369,4.62,-33.950001,6.93,0.6532639,-0.611388,-0.3065315
4.80019998550415,12.04,-26.67,-5.95,0.7197867,-0.6587676,-0.1888005
4.819799900054932,10.99,-10.64,-13.86,0.8044957,-0.592484,-0.1203633
4.841000080108643,-2.38,4.34,-17.15,0.8044957,-0.592484,-0.1203633
4.860599994659424,5.32,5.32,-12.6,0.8987762,-0.7707557,-0.1617606
4.880199909210205,37.380001,-1.75,-16.379999,0.7724308,-0.9394557,-0.5271576
4.899800062179565,87.080002,1.05,-30.59,0.7724308,-0.9394557,-0.5271576
4.921000003814697,81.830002,15.96,-38.779999,0.7736272,-0.2337871,0.0428331
4.9405999183654785,51.73,33.950001,-51.310001,0.7370157,-0.2184725,0.0327828
4.960200071334839,78.75,35.139999,-73.919998,0.7370157,-0.2184725,0.0327828
4.97979998588562,95.970001,18.200001,-103.18,0.63771,-0.4656599,-0.3417073
5.0,43.119999,3.43,-114.379997,0.5826731,-0.3055744,-0.7796094
5.019599914550781,-20.51,-5.11,-78.400002,0.4343128,-1.3826223,-0.5936805
5.039200067520142,4.41,-6.65,-34.439999,0.4343128,-1.3826223,-0.5936805
5.058799982070923,103.18,-9.03,-10.71,0.3718579,-1.8707756,-0.4448416
5.078999996185303,129.919998,-12.39,-2.45,0.2943277,-1.2579518,-0.2720737
5.098599910736084,109.620003,-17.290001,-8.47,0.5738194,-0.4699671,0.0820767
5.118200063705444,99.68,-21.700001,-13.93,0.5738194,-0.4699671,0.0820767
5.137799978256226,151.759995,-26.67,-15.96,0.7126081,-0.9590775,0.1935863
5.158999919891357,166.669998,-23.309999,-12.67,0.8147852,-0.4766673,0.2112938
5.178600072860718,78.959999,-6.44,-3.85,0.8147852,-0.4766673,0.2112938
5.198199987411499,-12.11,7.84,0.14,0.8755651,-0.1883219,0.3675507
5.21779990196228,-51.869999,18.41,5.39,0.7489802,-0.8834617,0.5967913
5.23799991607666,-65.800003,30.66,4.48,0.6384279,-0.4620706,0.5187825
5.2576000690460205,-68.110001,50.400002,-16.59,0.6384279,-0.4620706,0.5187825
5.277199983596802,-61.25,73.57,-53.060001,0.5357721,-0.2471874,0.6527853
5.296799898147583,-70.840004,96.18,-70.910004,0.7106937,0.0507297,0.7776951
5.316999912261963,-102.760002,114.800003,-105.489998,0.4367057,0.0495332,-0.1225169
5.336600065231323,-126.0,112.349998,-116.129997,0.4367057,0.0495332,-0.1225169
5.3561999797821045,-103.739998,105.0,-107.940002,0.3098816,-0.3988978,-0.4276127
5.375799894332886,4.27,86.870003,-96.110001,0.4874354,-1.3962619,-0.8691042
5.395999908447266,123.550003,27.719999,-93.730003,0.5955948,-1.1203596,-1.1911897
5.415600061416626,138.809998,-31.01,-82.739998,0.5955948,-1.1203596,-1.1911897
5.435199975967407,95.830002,-47.040001,-50.189999,0.8877689,-0.6637927,-0.8341678
5.4547998905181885,34.509998,-33.32,-12.04,1.0100465,-0.592484,-0.1270634
5.476000070571899,26.460001,-19.040001,19.389999,0.834407,-0.4505846,0.1734858
5.495599985122681,103.040001,0.63,24.92,1.0198574,-1.1287348,0.1153382
5.515199899673462,200.339996,24.639999,41.299999,1.4264125,-1.359411,-0.0698729
5.534800052642822,279.230011,26.389999,67.199997,1.2395264,-1.3438572,-0.1320885
5.555000066757202,289.589996,32.41,77.559998,1.1406993,-1.0641262,-0.422109
5.574599981307983,220.080002,34.23,103.110001,1.1110272,-0.403205,-0.3917191
5.594199895858765,59.709999,44.450001,106.050003,1.1339992,-0.2041151,-0.0964342
5.613800048828125,-86.870003,71.540001,151.410004,1.7511301,-0.4429273,0.9992785
5.634000062942505,-86.379997,73.709999,185.220001,1.7511301,-0.4429273,0.9992785
5.653599977493286,-45.5,8.33,176.330002,0.9334735,-0.7616626,0.1253884
5.673199892044067,-3.01,-70.07,170.940002,0.628617,-0.9105016,-0.3007885
5.692800045013428,70.980003,-115.5,152.740005,0.5975091,-0.9973641,-0.0308685
5.71399998664856,154.210007,-140.139999,142.029999,0.5975091,-0.9973641,-0.0308685
5.733599901199341,185.919998,-142.660004,107.590004,0.7075829,-0.1148596,0.0737016
5.753200054168701,140.070007,-115.5,85.470001,0.7075829,-0.1148596,0.0737016
5.772799968719482,93.519997,-77.840004,60.060001,0.2127295,0.1131845,0.6233526
5.793999910354614,80.080002,-42.560001,38.639999,0.1605641,-0.8420644,1.0236861
5.813600063323975,85.470001,-14.21,24.99,0.1605641,-0.8420644,1.0236861
5.833199977874756,17.01,20.16,4.97,0.2132081,-0.6712107,0.9473523
5.852799892425537,-98.0,54.740002,5.74,0.4893497,-0.3589362,0.761902
5.872999906539917,-124.949997,77.629997,16.030001,0.6401029,-1.1670213,0.1232348
5.892600059509277,-60.549999,75.18,16.24,0.6401029,-1.1670213,0.1232348
5.912199974060059,46.060001,52.709999,5.04,0.4546525,-1.1055236,-0.2167975
5.93179988861084,141.259995,11.62,-14.98,0.5917662,-0.9416093,-0.1969363
5.95199990272522,158.199997,-3.01,-25.059999,0.9583597,-0.2572376,0.2526911
5.97160005569458,109.550003,-22.75,-31.5,0.9583597,-0.2572376,0.2526911
5.991199970245361,81.690002,-31.5,-42.84,0.9724778,-0.2605877,0.2579555
6.010799884796143,34.369999,-38.639999,-52.43,0.9447201,-0.294567,0.2893026
6.0320000648498535,-35.349998,-52.639999,-60.760002,0.8470895,-0.3455359,0.189279
6.051599979400635,-59.360001,-58.099998,-70.209999,0.9317985,-0.2981564,0.1624785
6.071199893951416,-31.219999,-57.260002,-81.550003,0.9435237,-0.5061001,0.1655892
6.090800046920776,18.690001,-56.84,-86.940002,0.8212461,-0.7037543,0.196697
6.111000061035156,62.720001,-57.470001,-86.449997,0.8212461,-0.7037543,0.196697
6.1305999755859375,85.050003,-62.650002,-81.129997,0.8379964,-0.667382,0.1962185
6.150199890136719,80.5,-69.160004,-83.370003,0.7741058,-0.7367764,0.215601
6.169800043106079,43.540001,-68.040001,-85.75,0.778413,-0.6621177,0.2763809
6.190000057220459,-7.77,-62.860001,-84.980003,0.778413,-0.6621177,0.2763809
6.20959997177124,-51.310001,-52.639999,-82.25,0.7906168,-0.6334028,0.3117959
6.2291998863220215,-84.139999,-44.450001,-82.739998,0.7351014,-0.5912876,0.3072494
6.248800039291382,-108.639999,-35.0,-83.440002,0.6609212,-0.5388829,0.2313942
6.269999980926514,-117.739998,-25.83,-83.580002,0.6609212,-0.5388829,0.2313942
6.289599895477295,-96.040001,-22.33,-84.910004,0.5860232,-0.5431901,0.2191904
6.309200048446655,-60.619999,-22.610001,-88.199997,0.5400794,-0.6472816,0.116056
6.3287999629974365,-16.1,-24.290001,-93.590004,0.5400794,-0.6472816,0.116056
6.348999977111816,28.559999,-27.16,-95.340004,0.5338578,-0.6087558,0.2110545
6.368599891662598,57.260002,-29.68,-90.93,0.5573083,-0.5183039,0.3220854
6.388200044631958,56.07,-37.939999,-80.150002,0.4967677,-0.3945905,0.3644399
6.407799959182739,41.860001,-46.759998,-61.459999,0.4967677,-0.3945905,0.3644399
6.427999973297119,24.08,-53.41,-42.77,0.6611605,-0.3845403,0.5362507
6.4475998878479,0.7,-48.790001,-20.370001,0.9444808,-0.2727915,0.5565904
6.467200040817261,-21.84,-44.310001,-0.07,0.7406051,-0.3125138,0.3857368
6.486799955368042,-23.24,-48.720001,10.64,0.7406051,-0.3125138,0.3857368
6.507999897003174,4.83,-56.84,13.02,0.6544604,-0.3819081,0.3175389
6.527600049972534,60.060001,-62.650002,9.1,0.7121294,-0.5075358,0.241923
6.547199964523315,119.840004,-65.239998,4.06,0.7121294,-0.5075358,0.241923
6.566799879074097,154.979996,-63.420002,3.5,0.872215,-0.4623098,0.1993292
6.588000059127808,165.339996,-58.310001,6.86,0.9643419,-0.376883,0.1703751
6.607599973678589,158.619995,-49.420002,8.75,0.9662563,-0.2837989,0.1141417
6.62719988822937,138.320007,-40.740002,10.85,0.9066729,-0.1564962,0.0555155
6.6468000411987305,116.970001,-32.619999,7.56,0.7209832,0.0033501,-0.1457281
6.66700005531311,102.269997,-28.98,-4.48,0.7209832,0.0033501,-0.1457281
6.686599969863892,97.510002,-26.880001,-21.98,0.7439551,0.027997,-0.1519497
6.706199884414673,83.230003,-21.42,-38.080002,0.8777187,0.0634121,-0.1031343
6.725800037384033,59.150002,-17.710001,-48.720001,1.059819,-0.0559941,-0.0409187
6.746000051498413,42.700001,-13.93,-54.18,1.059819,-0.0559941,-0.0409187
6.765599966049194,39.830002,-10.64,-57.470001,1.0823123,-0.2005257,-0.0162718
6.785199880599976,36.540001,-10.01,-56.0,1.0327791,-0.1907148,-0.080641
6.804800033569336,32.200001,-10.15,-51.240002,1.1995648,-0.0107681,-0.1430959
6.825999975204468,11.13,-2.03,-38.220001,1.1995648,-0.0107681,-0.1430959
6.845599889755249,-21.42,10.71,-18.690001,1.3323712,-0.0078966,-0.1677429
6.865200042724609,-46.970001,17.360001,-1.75,0.9255769,-0.0473796,-0.1847325
6.884799957275391,-42.84,17.85,10.71,0.9255769,-0.0473796,-0.1847325
6.9049999713897705,-21.98,17.710001,15.89,0.8181353,-0.0839911,-0.1045701
6.924599885940552,-4.34,9.66,11.55,0.7324692,0.0107681,-0.1134238
6.944200038909912,13.51,-1.89,-0.63,0.8633613,0.0169896,-0.0909305
6.963799953460693,17.5,-9.45,-14.0,0.8633613,0.0169896,-0.0909305
6.983999967575073,-2.73,-9.73,-21.629999,0.9815709,0.1215597,0.0210576
7.0035998821258545,-16.52,-11.2,-25.9,1.0234468,0.0052644,0.0413973
7.023200035095215,-3.36,-13.440001,-26.950001,0.9406522,-0.1969363,0.0160325
7.042799949645996,19.6,-16.24,-24.710001,0.9540524,-0.1560176,0.013161
7.063999891281128,37.380001,-16.1,-21.91,0.9540524,-0.1560176,0.013161
7.083600044250488,59.290001,-12.67,-20.51,1.0887732,-0.1301742,0.0837518
7.1031999588012695,90.440002,-10.71,-18.549999,1.0887732,-0.1301742,0.0837518
7.122799873352051,117.459999,-3.43,-15.33,1.1763536,-0.2409658,0.0248862
7.142999887466431,115.080002,3.99,-9.38,1.2167937,-0.1351993,0.0026322
7.162600040435791,88.550003,4.13,3.01,1.2538838,-0.0514475,0.0557548
7.182199954986572,74.760002,7.42,5.6,1.2538838,-0.0514475,0.0557548
7.2017998695373535,81.690002,9.1,7.07,1.2347405,-0.1320885,0.035415
7.221999883651733,93.590004,8.89,9.59,1.2450301,-0.2780559,0.0830339
7.241600036621094,88.269997,7.42,17.08,1.1426136,-0.1182097,0.1770752
7.261199951171875,71.889999,8.82,21.0,1.1426136,-0.1182097,0.1770752
7.280800104141235,61.740002,10.15,21.210001,1.1397421,-0.0492939,0.0069394
7.300999879837036,64.400002,11.62,21.07,1.1397421,-0.0492939,0.0069394
7.3206000328063965,64.400002,9.8,18.690001,1.1483566,0.0117252,0.0753766
7.340199947357178,58.939999,4.41,11.97,1.1859253,0.153864,0.0399616
7.359800100326538,52.290001,-5.74,2.66,1.1476387,0.1045701,-0.0138789
7.38100004196167,29.190001,-13.3,-7.21,1.0971483,0.1588891,-0.0402009
7.400599956512451,-3.15,-16.379999,-15.47,1.0971483,0.1588891,-0.0402009
7.420199871063232,-44.939999,-17.290001,-18.9,1.1177274,0.1622392,-0.0069394
7.439800024032593,-70.07,-17.99,-20.370001,1.2356977,0.0454653,0.0519261
7.460999965667725,-33.740002,-17.57,-25.83,1.2356977,0.0454653,0.0519261
7.480599880218506,16.030001,-21.07,-20.58,1.2208617,-0.0382865,-0.052644
7.500200033187866,26.18,-22.469999,-12.95,1.1359135,0.0067001,-0.0756159
7.5197999477386475,22.889999,-18.620001,-6.23,1.1320848,-0.0849482,-0.0344579
7.539999961853027,13.72,-16.1,-4.41,1.1320848,-0.0849482,-0.0344579
7.559599876403809,17.01,-16.1,-7.49,1.1112665,-0.0093323,-0.1237134
7.579200029373169,45.779999,-21.84,-4.62,1.1172488,-0.1007414,-0.1495568
7.59879994392395,54.880001,-28.559999,-4.06,1.0660405,-0.045226,-0.120124
7.619999885559082,42.420002,-35.560001,-0.42,1.0660405,-0.045226,-0.120124
7.639600038528442,73.919998,-38.43,2.66,1.0507259,-0.1167739,-0.1706143
7.659199953079224,91.769997,-35.490002,6.09,1.0507259,-0.1167739,-0.1706143
7.678800106048584,96.949997,-27.440001,19.389999,1.0571868,-0.4240233,0.1421387
7.698999881744385,105.699997,-18.690001,36.400002,1.0571868,-0.4240233,0.1421387
7.718600034713745,104.230003,-8.12,51.450001,1.080398,-0.2368979,0.0847089
7.738199949264526,99.120003,3.92,54.459999,1.0375649,-0.093802,0.060062
7.757800102233887,88.970001,10.01,54.740002,0.9473523,-0.1296956,0.0804017
7.7779998779296875,66.150002,11.9,52.990002,0.9473523,-0.1296956,0.0804017
7.797600030899048,37.029999,12.46,45.43,0.9329948,0.1000236,0.0670014
7.817199945449829,15.89,9.59,25.27,0.8882475,0.2675271,0.0167504
7.8368000984191895,-7.77,3.57,1.47,0.8882475,0.2675271,0.0167504
7.85699987411499,-33.18,-0.91,-18.620001,0.851636,0.2558019,0.0045465
7.876600027084351,-45.709999,-3.78,-31.639999,0.8633613,0.0820767,-0.005743
7.896199941635132,-63.209999,-7.0,-45.639999,0.924859,0.2816453,-0.1141417
7.915800094604492,-99.400002,-11.13,-51.029999,0.924859,0.2816453,-0.1141417
7.937000036239624,-125.230003,-14.0,-51.380001,0.9789387,0.0210576,-0.0612584
7.956599950790405,-121.449997,-14.28,-51.869999,0.9789387,0.0210576,-0.0612584
7.976200103759766,-103.18,-12.88,-51.869999,1.0284719,0.1564962,-0.0859054
7.995800018310547,-80.220001,-8.05,-49.77,1.065562,-0.0646085,-0.046901
8.016000032424927,-61.32,-5.39,-46.759998,1.0643655,0.0062216,0.0035894
8.035599946975708,-76.230003,-0.56,-45.150002,1.0356506,0.1923898,-0.0397223
8.055200099945068,-103.739998,3.29,-45.080002,1.0356506,0.1923898,-0.0397223
8.07480001449585,-139.229996,9.66,-39.549999,0.9626669,0.2117724,-0.0162718
8.09500002861023,-137.410004,15.75,-37.450001,0.9796566,-0.0349365,0.0552762
8.11459994316101,-82.18,20.58,-34.16,0.9741529,-0.0313471,0.0040679
8.134200096130371,-55.860001,24.57,-35.630001,0.9741529,-0.0313471,0.0040679
8.153800010681152,-93.870003,24.57,-28.07,0.9777423,-0.0418759,0.0392437
8.174999952316284,-84.559998,24.360001,-22.33,0.9777423,-0.0418759,0.0392437
8.194600105285645,-10.36,28.42,-23.309999,0.998082,-0.0818375,0.0591048
8.214200019836426,21.559999,31.43,-19.530001,0.9892282,0.0524047,-0.058387
8.233799934387207,10.22,21.629999,-17.219999,1.0232075,0.0818375,-0.167025
8.254999876022339,-17.15,13.93,-17.43,1.0232075,0.0818375,-0.167025
8.2746000289917,-65.309998,14.98,-19.530001,0.994014,0.3452966,-0.0681979
8.29419994354248,-99.190002,16.66,-16.52,1.0256004,-0.032065,-0.0421152
8.31380009651184,-62.16,15.4,-8.68,1.0256004,-0.032065,-0.0421152
8.333999872207642,-34.02,10.5,-3.36,1.0284719,-0.1722894,-0.1141417
8.353600025177002,-54.670002,7.77,-7.91,1.0593404,0.3531932,-0.149796
8.373199939727783,-103.040001,10.15,-11.41,1.0681942,0.2768595,-0.1244312
8.392800092697144,-98.139999,9.1,-12.25,1.0681942,0.2768595,-0.1244312
8.413000106811523,-52.709999,1.47,-3.43,0.9475916,-0.0904519,-0.0404401
8.432600021362305,-16.309999,-6.72,7.7,0.9554882,-0.1789895,0.1500353
8.452199935913086,42.490002,-9.17,24.780001,0.9373021,-0.3780795,0.1117488
8.471800088882446,113.400002,-11.41,38.920002,0.9373021,-0.3780795,0.1117488
8.493000030517578,158.690002,-16.59,52.080002,0.9389771,-0.1445316,0.0449867
8.51259994506836,182.630005,-19.6,66.150002,0.930602,-0.2000471,0.0918877
8.53220009803772,187.529999,-10.71,73.290001,0.930602,-0.2000471,0.0918877
8.551800012588501,165.410004,7.28,68.599998,1.0653227,0.1921505,0.2199083
8.57200002670288,149.169998,11.83,50.959999,0.9674527,0.2105759,0.1000236
8.591599941253662,126.770004,5.39,32.619999,0.8549861,0.268245,0.0593441
8.611200094223022,104.370003,-0.14,24.290001,0.8549861,0.268245,0.0593441
8.630800008773804,91.139999,4.34,21.629999,0.9420879,0.1663071,0.0399616
8.651000022888184,109.199997,0.56,17.15,0.9609919,-0.0607799,-0.102895
8.670599937438965,120.330002,-4.9,10.85,1.0011928,0.0772909,-0.0480975
8.690200090408325,106.889999,0.35,-0.07,1.0011928,0.0772909,-0.0480975
8.709800004959106,83.580002,5.53,-5.11,1.0308648,0.2000471,0.0966735
8.730999946594238,50.470001,0.28,-7.0,0.9511809,0.2471874,-0.1354386
8.750600099563599,43.889999,-7.0,-4.27,0.9511809,0.2471874,-0.1354386
8.77020001411438,67.269997,-14.77,-3.92,1.0550332,-0.0603013,-0.0500118
8.789799928665161,84.559998,-12.11,-6.65,1.0610154,0.0497725,0.0765731
8.809999942779541,65.379997,-3.5,-12.6,0.998082,0.2593912,0.061737
8.829600095748901,23.450001,-2.38,-12.18,0.998082,0.2593912,0.061737
8.849200010299683,6.3,-6.58,-6.72,1.0600583,0.1552997,-0.0409187
8.868799924850464,11.97,-7.91,-3.5,1.0593404,0.1651107,0.0722658
8.888999938964844,18.969999,-3.5,-4.13,1.0083714,0.1186882,0.1923898
8.908600091934204,20.16,3.43,-1.96,1.0083714,0.1186882,0.1923898
8.928200006484985,4.83,9.45,1.4,0.9473523,0.2153617,0.0315864
8.947799921035767,-4.34,14.63,6.3,0.9198339,0.0909305,-0.1457281
8.967999935150146,7.56,11.83,8.4,0.8899225,-0.1789895,-0.3347678
8.987600088119507,24.360001,-2.8,10.36,0.8899225,-0.1789895,-0.3347678
9.007200002670288,38.220001,-19.67,3.22,1.0930804,-0.0059823,-0.2211047
9.02679991722107,23.59,-23.799999,-6.3,1.0579046,0.1261063,-0.1227562
9.04800009727478,1.54,-21.629999,-8.05,1.0579046,0.1261063,-0.1227562
9.067600011825562,0.77,-25.27,-1.96,0.979178,-0.390044,-0.3603719
9.087199926376343,10.5,-36.540001,4.48,1.04259,-0.3295034,-0.3070101
9.106800079345703,-3.43,-42.91,3.99,1.04259,-0.3295034,-0.3070101
9.128000020980835,-19.6,-34.299999,5.74,1.0215324,-0.0122038,-0.0256041
9.147599935531616,-8.89,-20.65,9.66,0.94137,-0.0356543,0.0708301
9.167200088500977,-15.68,-8.05,10.36,0.94137,-0.0356543,0.0708301
9.186800003051758,-33.110001,-1.19,7.56,0.9648206,0.0538404,-0.0047858
9.207000017166138,-48.439999,-1.12,2.1,0.9842031,0.1739644,-0.0665228
9.226599931716919,-54.529999,-4.76,0.56,0.9155267,0.1344814,-0.0040679
9.24620008468628,-77.629997,-3.71,-0.21,0.9155267,0.1344814,-0.0040679
9.26579999923706,-100.590004,-2.31,-0.21,0.9193553,0.2507768,-0.0081359
9.286999940872192,-87.849998,-3.01,1.19,0.998082,0.0040679,-0.0296721
9.306600093841553,-53.34,-5.18,3.78,0.998082,0.0040679,-0.0296721
9.326200008392334,-34.650002,-4.83,7.77,1.0074143,0.0787267,-0.0169896
9.345799922943115,-25.34,-2.45,12.53,1.044983,0.0861447,-0.0346972
9.365999937057495,-25.059999,-1.96,17.290001,1.0394793,0.1734858,-0.0442688
9.385600090026855,-33.529999,-0.35,19.6,1.0394793,0.1734858,-0.0442688
9.405200004577637,-30.1,1.19,18.129999,1.0004748,0.0626942,-0.0361329
9.424799919128418,-14.35,2.59,14.14,0.9870746,0.0794446,0.0031108
9.444999933242798,-0.35,1.82,11.2,0.9547704,0.0804017,-0.0418759
9.464600086212158,2.66,-2.8,9.17,0.9547704,0.0804017,-0.0418759
9.48420000076294,6.93,-8.19,8.61,0.9652991,0.0480975,-0.121799
9.50379991531372,25.620001,-11.48,9.52,0.9746315,-0.0765731,-0.1117488
9.5239999294281,52.220001,-13.09,12.53,1.0107644,-0.0772909,-0.1057665
9.543600082397461,71.260002,-12.18,16.66,1.0107644,-0.0772909,-0.1057665
9.563199996948242,82.110001,-10.22,20.860001,1.0344542,-0.0212969,-0.052644
9.582799911499023,89.669998,-7.49,24.43,0.9217482,-0.014836,-0.0145967
9.604000091552734,94.919998,-6.79,22.82,0.9217482,-0.014836,-0.0145967
9.623600006103516,91.279999,-6.65,17.08,0.9152873,0.0488153,-0.0540797
9.643199920654297,72.099998,-8.12,8.4,0.8925548,0.1651107,-0.1105524
9.662800073623657,41.650002,-12.32,0.21,0.8925548,0.1651107,-0.1105524
9.683000087738037,7.77,-13.93,-5.46,0.9320377,0.2144046,-0.0768124
9.702600002288818,-14.63,-12.53,-9.73,0.9105016,0.1026558,0.0404401
9.7221999168396,-29.75,-9.31,-14.14,0.8865725,0.1636749,-0.0019143
9.74180006980896,-43.540001,-6.58,-17.99,0.8865725,0.1636749,-0.0019143
9.76200008392334,-44.66,-3.22,-20.23,0.911698,0.1746823,-0.0457045
9.781599998474121,-33.18,1.19,-24.15,0.9478309,0.0796838,0.0325435
9.801199913024902,-28.49,3.57,-26.25,0.9597955,0.1273027,0.0107681
9.820800065994263,-31.710001,3.64,-26.25,0.9597955,0.1273027,0.0107681
9.842000007629395,-25.549999,4.41,-26.040001,0.9990392,0.1289778,0.0055037
9.861599922180176,-29.469999,7.98,-25.76,0.9308413,0.1172525,0.0110074
9.881200075149536,-29.120001,10.43,-28.700001,0.9308413,0.1172525,0.0110074
9.900799989700317,-18.129999,8.96,-30.66,0.9775029,0.1658285,0.0275184
9.92199993133545,-5.67,3.22,-33.389999,0.9504631,0.1569748,-0.086384
9.94160008430481,2.8,-0.91,-37.59,0.9504631,0.1569748,-0.086384
9.96119999885559,9.31,-3.5,-36.959999,0.9535739,0.1174918,-0.1007414
9.980799913406372,20.02,-8.12,-29.120001,0.9834852,0.0248862,-0.1608034
10.000999927520752,29.469999,-7.42,-24.85,1.0224896,0.1194061,-0.1462067
10.020600080490112,25.9,-6.86,-21.629999,1.0224896,0.1194061,-0.1462067
10.040199995040894,24.360001,-7.42,-18.34,1.0155502,0.0581477,-0.1363958
10.059799909591675,35.630001,-7.0,-18.27,1.0562296,0.1263456,-0.1435745
10.079999923706055,12.25,-2.45,-17.99,0.9600348,0.2835596,0.0229719
10.099600076675415,-52.080002,-0.77,-13.58,0.9600348,0.2835596,0.0229719
10.119199991226196,-108.43,-1.68,-4.34,0.9081086,0.4438845,0.0332614
10.138799905776978,-93.169998,-1.4,-7.21,0.9332341,0.0555155,-0.200765
10.160000085830688,-47.810001,2.17,-1.47,0.9332341,0.0555155,-0.200765
10.17960000038147,2.31,7.84,-4.76,1.1105487,-0.0708301,0.1033736
10.199199914932251,38.360001,3.01,-10.99,0.9633848,0.3223247,-0.2536483
10.218800067901611,37.59,-8.68,-5.32,0.9633848,0.3223247,-0.2536483
10.239000082015991,-3.85,0.21,4.83,1.024404,0.2115331,-0.0904519
10.258599996566772,-10.15,2.1,5.88,1.1060021,0.1696572,0.1045701
10.278199911117554,39.060001,-23.379999,1.96,1.303417,0.1002628,-0.6027736
10.297800064086914,22.960001,-14.91,-3.01,1.303417,0.1002628,-0.6027736
10.318000078201294,-1.19,-0.56,5.74,1.2945633,0.4383808,-0.4745137
10.337599992752075,13.3,-7.07,4.55,1.2804451,0.125867,-0.1959792
10.357199907302856,5.6,-4.76,5.11,1.3496001,0.3701829,-0.0959556
10.376800060272217,5.04,-9.87,4.76,1.3496001,0.3701829,-0.0959556
10.398000001907349,-15.82,-13.3,10.64,1.3869295,0.3847796,-0.3237605
10.41759991645813,-31.15,-11.34,11.27,1.3718542,0.2318728,-0.2043544
10.43720006942749,-30.380001,-14.84,10.5,1.3718542,0.2318728,-0.2043544
10.456799983978271,-12.81,-17.01,8.82,1.3531896,0.26657,-0.1038522
10.476999998092651,2.87,-21.700001,6.51,1.2689591,0.2254119,-0.0239291
10.496599912643433,1.12,-26.389999,10.15,1.2751807,0.2780559,-0.3244783
10.516200065612793,-5.88,-21.559999,14.0,1.2751807,0.2780559,-0.3244783
10.535799980163574,-12.39,-15.75,21.280001,1.1959755,0.2773381,-0.2498196
10.555999994277954,-17.57,-10.08,30.870001,1.153621,0.2273263,-0.2414444
10.575599908828735,-0.91,-4.13,33.25,1.0949947,0.0574298,-0.1703751
10.595200061798096,21.49,-2.59,31.85,1.0949947,0.0574298,-0.1703751
10.614799976348877,26.460001,0.49,31.01,1.0246432,0.1337636,-0.2909776
10.635999917984009,29.190001,2.66,34.23,0.9973641,-0.1036129,-0.1361565
10.65560007095337,42.349998,1.75,31.639999,0.9973641,-0.1036129,-0.1361565
10.67519998550415,37.52,4.06,30.380001,0.9810924,0.1172525,-0.1380708
10.694799900054932,21.559999,10.5,30.1,0.952856,0.1340029,-0.0703515
10.716000080108643,14.21,15.4,31.710001,0.952856,0.1340029,-0.0703515
10.735599994659424,14.14,16.379999,32.48,0.8858545,0.0071787,-0.0413973
10.755199909210205,13.23,11.9,28.49,0.7642949,-0.0512082,-0.2069865
10.774800062179565,-8.96,6.58,22.049999,0.7642949,-0.0512082,-0.2069865
10.795000076293945,-37.73,7.63,17.85,0.8205282,0.0729837,-0.1631963
10.814599990844727,-44.66,16.870001,11.83,0.9425665,-0.0406794,-0.1430959
10.834199905395508,-42.139999,22.960001,7.14,0.804735,-0.1378315,-0.0287149
10.853800058364868,-44.170002,24.5,4.06,0.804735,-0.1378315,-0.0287149
10.874000072479248,-54.040001,35.07,1.68,0.9459166,-0.1150989,-0.0052644
10.89359998703003,-53.619999,40.950001,1.19,0.999757,-0.0839911,0.0660443
10.91319990158081,-58.029999,41.23,4.41,0.9160052,-0.1043308,-0.0045465
10.932800054550171,-63.700001,46.759998,7.77,0.9160052,-0.1043308,-0.0045465
10.953999996185303,-55.439999,42.560001,3.57,0.6752787,0.0918877,-0.0461831
10.973599910736084,-24.57,29.68,-11.2,0.5271576,0.1507532,-0.0500118
10.993200063705444,-18.9,18.620001,-18.76,0.5271576,0.1507532,-0.0500118
11.012799978256226,-11.69,10.08,-16.73,0.6305313,0.1304135,-0.106963
11.032999992370605,0.49,0.98,-14.84,0.6374707,0.0033501,-0.0335007
11.052599906921387,7.28,0.63,-13.58,0.6281384,0.1139024,-0.0076573
11.072200059890747,8.61,-8.47,-15.26,0.6281384,0.1139024,-0.0076573
11.091799974441528,3.5,-23.52,-19.18,0.5754944,0.2010043,-0.048576
11.111999988555908,5.6,-43.189999,-29.190001,0.4946141,0.2455124,0.0294328
11.13159990310669,13.93,-55.299999,-43.82,0.9662563,0.1239526,0.6190453
11.15120005607605,18.690001,-50.889999,-47.25,0.9662563,0.1239526,0.6190453
11.170799970626831,17.01,-5.74,-34.580002,1.4546489,0.0033501,0.7269655
11.191999912261963,7.28,40.740002,-17.92,1.6721642,0.5735801,0.0476189
11.211600065231323,-31.639999,94.010002,9.87,1.6721642,0.5735801,0.0476189
11.231199979782104,-59.57,153.860001,42.139999,2.0847015,0.9143302,-0.005743
11.250799894332886,-39.549999,184.100006,57.470001,1.9121729,0.4620706,0.0179468
11.270999908447266,-29.540001,204.259995,59.010002,2.0423471,0.061737,0.0358936
11.290600061416626,-35.77,233.800003,55.02,2.0423471,0.061737,0.0358936
11.310199975967407,-36.330002,249.199997,39.200001,1.8097565,-0.159607,0.2641771
11.329799890518188,-40.32,262.220001,28.98,1.6377064,-0.0339793,0.2208654
11.349999904632568,-46.060001,272.579987,19.74,1.3156209,0.0124431,0.3498432
11.369600057601929,-43.75,280.630005,14.84,1.3156209,0.0124431,0.3498432
11.38919997215271,-15.47,279.299988,2.45,1.0093287,-0.2861918,0.3199318
11.408799886703491,-3.85,282.380005,-11.69,1.0016713,-0.3771223,0.4012907
11.428999900817871,1.96,278.880005,-20.23,0.6941826,-0.2134474,0.3644399
11.448600053787231,10.85,278.110016,-27.719999,0.6941826,-0.2134474,0.3644399
11.468199968338013,14.35,272.649994,-40.110001,0.3082066,-0.1543426,0.2646556
11.487799882888794,13.37,273.839996,-57.68,0.3290249,-0.0670014,0.3441002
11.509000062942505,1.12,276.5,-72.590004,0.2359407,-0.0614977,0.1636749
11.528599977493286,-17.780001,270.480011,-81.199997,0.0215362,-0.1837753,0.1619999
11.548199892044067,-45.080002,266.769989,-82.32,-0.0126824,-0.0832732,0.2299585
11.567800045013428,-68.110001,264.529999,-74.480003,-0.5195004,0.0296721,0.2991135
11.58899998664856,-84.419998,268.730011,-58.52,-0.5195004,0.0296721,0.2991135
11.60859990119934,-105.139999,275.940002,-34.509998,-0.724094,0.0038287,0.4733172
11.628200054168701,-109.270004,277.970001,-7.56,-0.724094,0.0038287,0.4733172
11.647799968719482,-77.349998,271.529999,10.78,-0.8303391,0.0035894,0.5132788
11.667999982833862,-63.139999,266.910004,18.690001,-0.664032,-0.0311078,0.5874589
11.687599897384644,-80.639999,270.059998,29.960001,-0.7083008,-0.0284756,0.615456
11.707200050354004,-106.82,277.829987,45.080002,-0.7724308,-0.0772909,0.5278755
11.726799964904785,-100.309998,288.75,51.52,-0.8097601,-0.3730544,0.5764515
11.747999906539917,-80.919998,295.959991,58.450001,-0.9432844,-0.335725,0.4666171
11.767600059509277,-45.849998,305.619995,56.209999,-0.9432844,-0.335725,0.4666171
11.787199974060059,-22.540001,310.23999,48.509998,-0.9167231,-0.2129688,0.4824103
11.80679988861084,-37.310001,313.179993,42.560001,-0.9200731,-0.020579,0.416366
11.82699990272522,-56.279999,328.720001,35.209999,-0.7461087,-0.1852111,0.4982035
11.84660005569458,-57.889999,343.700012,22.4,-0.7461087,-0.1852111,0.4982035
11.866199970245361,-59.779999,336.559998,3.64,-0.8628826,-0.3117959,0.2019614
11.885799884796143,-89.739998,318.429993,-11.97,-1.0504867,-0.6207203,0.1306528
11.905999898910522,-138.600006,294.559998,-8.05,-0.9679314,-0.3196925,-0.121799
11.925600051879883,-152.389999,277.480011,0.56,-0.9296448,-0.2311549,-0.1241919
11.945199966430664,-136.009995,264.529999,8.96,-0.876283,-0.1763573,0.0162718
11.964799880981445,-131.600006,235.690002,28.98,-0.816221,0.0260827,-0.0768124
11.984999895095825,-132.649994,180.180008,48.23,-0.8358428,-0.1270634,-0.4934176
12.004600048065186,-114.239998,109.480003,53.48,-0.8880082,0.1782717,-0.5604191
12.024199962615967,-75.25,28.91,46.619999,-0.8880082,0.1782717,-0.5604191
12.043799877166748,-34.09,-29.960001,32.48,-0.5977484,0.2526911,-0.497007
12.065000057220459,5.39,-66.080002,20.65,-0.5616155,0.2297192,-0.2577162
12.08459997177124,32.759998,-97.300003,8.19,-0.4991606,0.1031343,-0.2988742
12.104199886322021,58.170002,-110.949997,-5.11,-0.6125845,0.2914562,-0.4596776
12.123800039291382,73.290001,-105.0,-17.219999,-0.7930098,0.1273027,-0.6841324
12.144000053405762,65.309998,-83.440002,-24.219999,-0.7930098,0.1273027,-0.6841324
12.163599967956543,60.130001,-52.5,-32.48,-0.956206,0.0777695,-0.6058843
12.183199882507324,46.48,-25.129999,-36.189999,-1.0193789,-0.0490546,-0.489589
12.202800035476685,25.27,-6.72,-34.650002,-0.9267733,-0.1215597,-0.5029893
12.223000049591064,17.01,2.38,-48.299999,-0.8760436,0.0911698,-0.4139731
12.242599964141846,27.370001,16.24,-57.540001,-0.8760436,0.0911698,-0.4139731
12.262199878692627,26.950001,23.73,-63.77,-0.7537661,0.0461831,-0.223019
12.281800031661987,-2.38,18.129999,-61.599998,-0.8011456,-0.3704222,-0.3737722
12.30299997329712,-41.299999,5.04,-56.420002,-0.8011456,-0.3704222,-0.3737722
12.3225998878479,-56.420002,-5.46,-54.950001,-0.8076065,-0.3239998,-0.4020086
12.34220004081726,-41.02,-10.92,-62.860001,-0.8691042,0.0655657,-0.4522596
12.361799955368042,-6.58,-8.61,-71.260002,-0.8691042,0.0655657,-0.4522596
12.382999897003174,-1.82,-6.44,-69.720001,-0.8525931,-0.0660443,-0.4347914
12.402600049972534,-10.99,-5.25,-63.209999,-0.8774794,-0.1253884,-0.5345757
12.422199964523315,-16.940001,-8.89,-56.700001,-0.8774794,-0.1253884,-0.5345757
12.441799879074097,-23.66,-16.17,-49.700001,-0.9105016,-0.1050487,-0.5427115
12.461999893188477,-26.389999,-23.379999,-44.450001,-0.90428,-0.3091637,-0.6422565
12.481600046157837,-23.030001,-37.52,-52.5,-0.9834852,-0.3012671,-0.5608976
12.501199960708618,-14.77,-42.139999,-47.18,-0.9834852,-0.3012671,-0.5608976
12.5207998752594,-10.71,-40.810001,-43.82,-0.8155031,-0.2684843,-0.4678135
12.54099988937378,-14.42,-37.099998,-35.630001,-0.785831,-0.2864311,-0.4965284
12.56060004234314,-15.05,-32.830002,-27.23,-0.8557039,-0.3055744,-0.4879139
12.580199956893921,-9.59,-26.040001,-21.139999,-0.8557039,-0.3055744,-0.4879139
12.599799871444702,-4.55,-18.34,-14.49,-0.8506788,-0.2842775,-0.4125373
12.621000051498413,-2.24,-13.37,-7.07,-0.7939669,-0.4211518,-0.4441237
12.640599966049194,0.98,-5.04,-0.49,-0.8052135,-0.3311785,-0.4041622
12.660199880599976,7.49,5.18,5.32,-0.8004277,-0.3048565,-0.3539111
12.679800033569336,21.42,11.2,10.57,-0.7951633,-0.3474503,-0.4462774
12.700000047683716,29.960001,16.17,20.370001,-0.8478073,-0.3519968,-0.4125373
12.719599962234497,37.310001,20.860001,30.17,-0.8478073,-0.3519968,-0.4125373
12.739199876785278,47.880001,22.049999,42.279999,-0.8387143,-0.3323749,-0.4934176
12.758800029754639,58.170002,20.16,57.330002,-0.8056922,-0.3304606,-0.422109
12.779000043869019,80.150002,17.57,71.050003,-0.765252,-0.2548447,-0.376883
12.7985999584198,96.040001,18.9,87.919998,-0.765252,-0.2548447,-0.376883
12.818199872970581,97.510002,20.65,97.93,-0.8114351,-0.2218226,-0.3618077
12.837800025939941,91.07,26.18,99.400002,-0.9377807,-0.2072258,-0.5434294
12.858999967575073,74.970001,38.709999,97.860001,-0.9377807,-0.2072258,-0.5434294
12.878599882125854,71.75,51.380001,93.449997,-1.0256004,-0.2280442,-0.5666406
12.898200035095215,80.709999,54.32,88.340004,-1.1069592,-0.0885376,-0.5350543
12.917799949645996,96.809998,54.529999,80.150002,-1.2043507,0.0423545,-0.5283541
12.937999963760376,90.93,50.75,84.419998,-1.2043507,0.0423545,-0.5283541
12.957599878311157,60.48,64.190002,91.980003,-1.0031071,-0.2388122,-0.6539818
12.977200031280518,13.02,86.029999,93.590004,-0.7664485,-0.3991371,-0.5525225
12.996799945831299,-26.110001,108.989998,86.730003,-0.6817395,-0.3333321,-0.5714264
13.016999959945679,-62.23,132.930008,77.209999,-0.6817395,-0.3333321,-0.5714264
13.03659987449646,-111.650002,155.889999,66.010002,-0.5939198,-0.1253884,-0.5460616
13.05620002746582,-125.580002,158.479996,49.84,-0.7451516,0.0488153,-0.7073436
13.075799942016602,-107.099998,153.440002,31.5,-0.7609448,0.0844697,-0.7013614
13.115599870681763,-56.490002,122.080002,-1.05,-0.7609448,0.0844697,-0.7013614
13.135200023651123,-44.73,83.720001,-14.07,-0.5563511,0.1957399,-0.6853289
13.154799938201904,-30.52,39.689999,-28.84,-0.4982035,0.1325671,-0.6068415
13.175999879837036,-31.710001,-6.93,-35.07,-0.4982035,0.1325671,-0.6068415
13.195600032806396,-31.5,-48.09,-35.490002,-0.5264398,0.1435745,-0.5604191
13.215199947357178,-27.02,-75.110001,-36.68,-0.5032286,0.1026558,-0.5843482
13.234800100326538,-22.610001,-92.540001,-37.939999,-0.53649,0.0897341,-0.6300527
13.25600004196167,-5.53,-99.540001,-45.709999,-0.6013378,0.2072258,-0.6274205
13.275599956512451,15.68,-103.529999,-54.740002,-0.6013378,0.2072258,-0.6274205
13.295199871063232,18.549999,-102.900002,-55.510002,-0.6369921,0.1631963,-0.6087558
13.314800024032593,17.710001,-99.260002,-53.970001,-0.6779109,0.0574298,-0.6183275
13.335000038146973,28.700001,-94.989998,-53.130001,-0.6551782,0.0985878,-0.6963363
13.354599952697754,48.580002,-94.919998,-55.580002,-0.6551782,0.0985878,-0.6963363
13.374200105667114,34.299999,-98.699997,-45.779999,-0.8150245,-0.2727915,-0.57023
13.393800020217896,7.7,-96.879997,-35.490002,-0.8968619,-0.1251491,-0.6685785
13.414999961853027,-11.97,-91.349998,-31.360001,-0.8968619,-0.1251491,-0.6685785
13.434599876403809,-21.91,-82.32,-30.73,-0.9832459,0.0220148,-0.63771
13.454200029373169,-29.469999,-70.349998,-29.75,-1.1354349,-0.0117252,-0.6795859
13.47379994392395,-37.450001,-52.43,-23.66,-1.1237097,-0.2115331,-0.6396243
13.49399995803833,-38.849998,-28.0,-16.379999,-1.1237097,-0.2115331,-0.6396243
13.513599872589111,-38.849998,-10.29,-11.76,-1.0626904,-0.1363958,-0.5525225
13.533200025558472,-25.27,8.47,-10.99,-0.8504395,0.1150989,-0.40153
13.552799940109253,-4.41,20.719999,-7.98,-0.7891811,0.0002393,-0.3819081
13.572999954223633,12.18,20.93,0.35,-0.7891811,0.0002393,-0.3819081
13.592600107192993,22.190001,5.74,16.17,-0.8502003,-0.0327828,-0.4472345
13.612200021743774,39.689999,-20.93,41.09,-0.9030835,0.0612584,-0.382626
13.631799936294556,66.290001,-43.119999,64.050003,-0.9719993,0.2053115,-0.3251962
13.651999950408936,80.010002,-59.080002,83.860001,-0.9719993,0.2053115,-0.3251962
13.671600103378296,73.290001,-67.760002,94.919998,-0.8688649,0.0064609,-0.407273
13.691200017929077,55.09,-62.860001,94.360001,-0.844218,-0.0569512,-0.4462774
13.710799932479858,32.759998,-44.66,81.830002,-0.9243804,-0.0866233,-0.5427115
13.73199987411499,21.629999,-13.79,61.110001,-0.9243804,-0.0866233,-0.5427115
13.75160002708435,23.450001,25.129999,39.060001,-1.0325398,0.0007179,-0.5185432
13.771199941635132,20.790001,63.630001,17.43,-0.9786994,-0.0220148,-0.5711872
13.790800094604492,-5.32,99.190002,1.33,-0.9786994,-0.0220148,-0.5711872
13.810999870300293,-53.48,131.389999,-4.27,-0.8518753,-0.1273027,-0.5652049
13.830600023269653,-106.330002,148.190002,-3.43,-0.7745843,-0.027997,-0.5881768
13.850199937820435,-135.449997,147.490005,-7.77,-0.7796094,0.0332614,-0.5029893
13.869800090789795,-132.720001,131.600006,-19.74,-0.7796094,0.0332614,-0.5029893
13.890000104904175,-106.889999,101.360001,-30.52,-0.7439551,0.2368979,-0.4292877
13.909600019454956,-73.010002,61.25,-36.259998,-0.7810452,0.2895419,-0.4343128
13.929199934005737,-49.0,20.23,-34.02,-0.8054528,0.2414444,-0.4697278
13.948800086975098,-29.33,-16.379999,-25.9,-0.8054528,0.2414444,-0.4697278
13.97000002861023,-8.75,-41.650002,-15.54,-0.8107173,0.1689393,-0.451781
13.98959994316101,7.14,-55.23,-9.24,-0.752091,0.221344,-0.4843246
14.009200096130371,19.110001,-60.970001,-8.68,-0.752091,0.221344,-0.4843246
14.028800010681152,22.75,-61.880001,-10.36,-0.7566375,0.0612584,-0.5798016
14.049999952316284,13.93,-58.310001,-11.62,-0.7566375,0.0612584,-0.5798016
14.069600105285645,2.73,-48.09,-15.75,-0.7896597,0.1304135,-0.6142595
14.089200019836426,-2.94,-36.049999,-20.370001,-0.8183745,0.161282,-0.5664013
14.108799934387207,-6.09,-25.41,-24.08,-0.8717364,0.127542,-0.5630513
14.128999948501587,-11.69,-15.68,-23.799999,-0.8980584,0.1050487,-0.5613762
14.148600101470947,-17.99,-7.0,-21.42,-0.8765223,0.112706,-0.543908
14.168200016021729,-18.34,-0.84,-20.23,-0.8659934,0.1347207,-0.5128002
14.18779993057251,-12.32,3.71,-20.860001,-0.8657541,0.1263456,-0.5046643
14.208999872207642,-11.13,5.11,-18.9,-0.8657541,0.1263456,-0.5046643
14.228600025177002,-13.02,5.04,-14.7,-0.8683864,0.0787267,-0.5025107
14.248199939727783,-14.84,3.22,-9.17,-0.8535503,0.0997843,-0.4900676
14.267800092697144,-10.08,1.19,-6.23,-0.8535503,0.0997843,-0.4900676
14.288000106811523,-7.0,-0.28,-6.02,-0.7805666,0.0804017,-0.4848032
14.307600021362305,-6.02,-3.64,-6.93,-0.7796094,0.0679586,-0.4938962
14.327199935913086,-3.01,-7.56,-9.94,-0.7705164,0.0703515,-0.4883925
14.346800088882446,-0.42,-12.88,-13.3,-0.7705164,0.0703515,-0.4883925
14.367000102996826,-0.84,-15.68,-14.0,-0.8535503,0.0392437,-0.5113645
14.386600017547607,-1.68,-15.26,-12.39,-0.9004513,0.0878197,-0.5195004
14.406199932098389,-0.21,-13.09,-11.06,-0.9138516,0.0851875,-0.5130395
14.425800085067749,3.29,-10.29,-7.98,-0.9138516,0.0851875,-0.5130395
14.446000099182129,3.99,-6.09,-3.5,-0.9315591,0.0885376,-0.4991606
14.46560001373291,2.59,0.0,0.7,-0.8920761,0.0531226,-0.4905462
14.485199928283691,0.28,7.7,3.15,-0.8791544,0.013161,-0.4790602
14.504800081253052,-5.32,16.1,5.11,-0.8791544,0.013161,-0.4790602
14.526000022888184,-10.57,21.91,4.97,-0.8537896,0.0442688,-0.5206968
14.545599937438965,-10.64,23.870001,2.59,-0.872215,0.0428331,-0.5094501
14.565200090408325,-12.11,24.219999,0.63,-0.872215,0.0428331,-0.5094501
14.584800004959106,-16.940001,23.24,0.91,-0.8746079,0.0655657,-0.5613762
14.605000019073486,-19.74,22.4,2.8,-0.8906404,0.0729837,-0.5407972
14.624599933624268,-16.379999,20.860001,4.83,-0.8758043,0.0966735,-0.5180646
14.644200086593628,-9.17,19.040001,5.81,-0.8758043,0.0966735,-0.5180646
14.66380000114441,-4.69,15.89,7.07,-0.8009064,0.1076809,-0.4998785
14.684000015258789,-6.16,12.04,8.75,-0.7736272,0.0763338,-0.5106466
14.70359992980957,-6.37,7.63,9.66,-0.789899,0.1237134,-0.4769066
14.72320008277893,-2.17,4.2,6.93,-0.789899,0.1237134,-0.4769066
14.742799997329712,-1.89,1.33,3.43,-0.7843953,0.0796838,-0.5259612
14.763999938964844,-9.38,-0.35,2.31,-0.8226818,0.0368508,-0.5757337
14.783600091934204,-14.7,-0.42,0.84,-0.8226818,0.0368508,-0.5757337
14.803200006484985,-21.35,-1.61,1.47,-0.8339285,0.0253648,-0.5319435
14.822799921035767,-23.870001,-4.41,3.15,-0.8095208,0.1588891,-0.5917662
14.842999935150146,-22.4,-7.49,4.06,-0.7851131,0.0765731,-0.5321827
14.862600088119507,-11.34,-6.51,-0.98,-0.7851131,0.0765731,-0.5321827
14.882200002670288,1.82,-6.79,-8.12,-0.73893,0.1691786,-0.5448652
14.90179991722107,11.9,-11.55,-13.37,-0.7590304,0.1191668,-0.5376864
14.92300009727478,17.15,-18.690001,-16.52,-0.7590304,0.1191668,-0.5376864
14.942600011825562,19.32,-24.85,-18.48,-0.816221,0.1265848,-0.53649
14.962199926376343,19.530001,-28.35,-18.41,-0.8463716,0.1289778,-0.5010749
14.981800079345703,16.799999,-28.91,-14.91,-0.8463716,0.1289778,-0.5010749
15.002000093460083,11.97,-25.690001,-8.82,-0.859054,0.1471638,-0.4857604
15.021600008010864,6.58,-17.43,-4.62,-0.8399107,0.1351993,-0.4264162
15.041199922561646,-0.91,-10.43,-0.63,-0.8490038,0.0725051,-0.4414916
15.060800075531006,-12.6,-4.9,7.91,-0.8490038,0.0725051,-0.4414916
15.082000017166138,-20.23,-1.4,16.309999,-0.8547467,0.1873647,-0.418041
15.101599931716919,-15.61,-4.9,23.24,-0.8628826,0.1715715,-0.343143
15.12120008468628,0.63,-8.47,30.309999,-0.8628826,0.1715715,-0.343143
15.14079999923706,19.25,-13.65,34.580002,-0.9461558,0.2177546,-0.356304
15.16100001335144,31.360001,-27.719999,37.240002,-1.007175,0.1088773,-0.4393379
15.180599927902222,35.420002,-42.84,40.110001,-0.9128944,0.1411816,-0.4596776
15.200200080871582,26.18,-47.389999,35.700001,-0.9128944,0.1411816,-0.4596776
15.219799995422363,11.9,-40.110001,21.49,-0.8966227,0.0270399,-0.6104309
15.240000009536743,-4.13,-27.02,9.8,-0.8078458,-0.073223,-0.4795388
15.259599924087524,-5.46,-11.83,4.06,-0.7980349,0.1060058,-0.5123216
15.279200077056885,1.75,2.1,1.33,-0.7980349,0.1060058,-0.5123216
15.298799991607666,2.03,14.49,2.66,-0.8411072,0.0162718,-0.4960498
15.319999933242798,1.4,23.940001,0.35,-0.9638634,-0.0306292,-0.5333792
15.339600086212158,1.12,26.110001,-5.04,-0.9638634,-0.0306292,-0.5333792
15.35920000076294,0.14,21.98,-7.42,-0.7678842,-0.0818375,-0.4883925
15.37879991531372,-4.97,14.42,-2.52,-0.7755415,-0.0294328,-0.4338342
15.3989999294281,-3.43,8.82,-1.47,-0.8439787,0.0579084,-0.4635063
15.418600082397461,3.85,3.57,-7.42,-0.8439787,0.0579084,-0.4635063
15.438199996948242,4.83,-3.15,-13.86,-0.8939904,0.0210576,-0.4120588
15.457799911499023,-1.47,-12.95,-12.04,-0.9210303,0.0782481,-0.523329
15.477999925613403,-2.73,-23.450001,-4.41,-0.9796566,0.167025,-0.4682921
15.497600078582764,2.52,-30.66,3.36,-0.9796566,0.167025,-0.4682921
15.517199993133545,9.03,-31.57,9.52,-0.980853,0.2153617,-0.4809745
15.536799907684326,16.1,-27.719999,13.93,-0.9155267,-0.0124431,-0.3388358
15.556999921798706,14.98,-22.33,14.14,-0.8659934,0.1045701,-0.43527
15.576600074768066,10.99,-15.26,13.51,-0.8659934,0.1045701,-0.43527
15.596199989318848,8.89,-8.33,10.64,-0.8604897,0.1392673,-0.4060765
15.615799903869629,7.56,-2.03,4.41,-0.8882475,0.1079202,-0.4297663
15.63700008392334,0.49,5.32,-0.14,-0.8882475,0.1079202,-0.4297663
15.656599998474121,-9.17,11.83,-1.96,-0.900212,0.0899733,-0.4168446
15.676199913024902,-14.49,16.450001,-2.73,-0.8569004,0.1091166,-0.3713793
15.695800065994263,-14.63,20.02,-3.01,-0.8569004,0.1091166,-0.3713793
15.716000080108643,-17.219999,18.34,-1.68,-0.8700614,0.1684607,-0.3938727
15.735599994659424,-6.72,17.08,-3.36,-0.8585754,0.1206026,-0.4103837
15.755199909210205,3.64,12.18,-4.34,-0.9468738,0.193347,-0.4323985
15.774800062179565,11.34,6.65,-3.85,-0.9468738,0.193347,-0.4323985
15.796000003814697,11.9,2.17,0.56,-0.9250982,0.1665464,-0.431202
15.815599918365479,12.6,-1.12,3.15,-0.9088264,0.1325671,-0.4524989
15.835200071334839,9.8,-0.21,6.86,-0.9088264,0.1325671,-0.4524989
15.85479998588562,7.07,7.49,8.68,-0.8765223,0.0959556,-0.4405344
15.875999927520752,1.33,16.309999,9.24,-0.8595325,0.0717872,-0.4556097
15.895600080490112,-2.87,24.5,7.56,-0.8595325,0.0717872,-0.4556097
15.915199995040894,-6.51,29.33,6.72,-0.8222033,0.0569512,-0.4675743
15.934799909591675,-9.45,30.59,7.56,-0.8233996,0.0985878,-0.4718815
15.954999923706055,-14.07,29.82,9.31,-0.8262712,0.1253884,-0.5254826
15.974600076675415,-18.48,28.139999,11.34,-0.8262712,0.1253884,-0.5254826
15.994199991226196,-19.74,25.83,12.46,-0.8360821,0.1474031,-0.5151931
16.013799905776978,-19.460001,23.870001,13.09,-0.8487645,0.1737251,-0.5943984
16.033999919891357,-17.710001,22.960001,14.07,-0.8509181,0.1689393,-0.5716658
16.053600072860718,-11.48,22.469999,13.72,-0.8509181,0.1689393,-0.5716658
16.0731999874115,-7.0,21.700001,14.28,-0.8624041,0.1935863,-0.583391
16.09279990196228,-8.75,21.35,16.17,-0.8267497,0.1435745,-0.5778873
16.11299991607666,-12.11,21.84,18.41,-0.8284247,0.1316099,-0.5733408
16.13260006904602,-15.190001,25.9,20.51,-0.8284247,0.1316099,-0.5733408
16.1521999835968,-13.72,31.290001,20.719999,-0.8233996,0.1797074,-0.5843482
16.171799898147583,-9.17,35.77,17.57,-0.7999492,0.1986114,-0.5680764
16.193000078201294,-7.21,38.290001,14.0,-0.7762594,0.1885612,-0.5872197
16.212599992752075,-7.49,37.799999,11.41,-0.7441944,0.1526675,-0.5874589
16.232199907302856,-6.58,34.580002,8.82,-0.6963363,0.1560176,-0.5946377
16.251800060272217,-3.99,28.630001,6.72,-0.6963363,0.1560176,-0.5946377
16.272000074386597,-2.87,21.49,5.95,-0.7085401,0.1914326,-0.590809
16.291599988937378,-3.22,15.26,6.93,-0.7154795,0.1557783,-0.6156952
16.31119990348816,-2.66,10.22,8.75,-0.7477838,0.2275656,-0.6140202
16.33080005645752,0.28,7.42,10.5,-0.7477838,0.2275656,-0.6140202
16.3510000705719,-0.63,7.63,13.02,-0.7762594,0.2074651,-0.63771
16.37059998512268,-2.1,10.22,14.63,-0.7906168,0.2136867,-0.6439316
16.390199899673462,-2.03,13.86,16.309999,-0.7690806,0.2144046,-0.6479995
16.409800052642822,-1.96,17.710001,19.389999,-0.7494588,0.2244548,-0.6602034
16.450599908828735,-5.6,22.190001,23.17,-0.7262476,0.2290013,-0.6669035
16.470200061798096,-9.94,24.219999,25.27,-0.7262476,0.2290013,-0.6669035
16.489799976348877,-8.33,25.129999,25.27,-0.7207439,0.2581948,-0.6680999
16.509999990463257,-5.6,23.17,24.15,-0.6834146,0.2469481,-0.6446495
16.529599905014038,-6.23,18.969999,24.360001,-0.6810216,0.2627413,-0.6628356
16.5492000579834,-7.77,15.190001,26.950001,-0.6810216,0.2627413,-0.6628356
16.56879997253418,-9.73,12.53,30.66,-0.6554175,0.2773381,-0.6683393
16.58999991416931,-13.86,9.66,35.77,-0.6877218,0.322564,-0.6752787
16.609600067138672,-10.22,8.26,39.27,-0.6877218,0.322564,-0.6752787
16.629199981689453,-3.22,5.74,39.970001,-0.6776716,0.3362036,-0.6688178
16.648799896240234,0.0,3.64,39.549999,-0.6568533,0.3479288,-0.6642713
16.668999910354614,-1.68,4.34,38.43,-0.617131,0.3153853,-0.6570926
16.688600063323975,-2.45,7.21,34.860001,-0.617131,0.3153853,-0.6570926
16.708199977874756,0.49,9.03,27.440001,-0.6032521,0.3328535,-0.6654677
16.727799892425537,3.36,6.3,16.870001,-0.5585048,0.3498432,-0.6487174
16.749000072479248,1.54,-0.14,5.67,-0.5132788,0.3091637,-0.6305313
16.76859998703003,-3.15,-7.49,-2.45,-0.4974856,0.2735094,-0.6362742
16.78819990158081,-0.56,-15.26,-10.5,-0.5314649,0.3443395,-0.6125845
16.80780005455017,7.35,-23.940001,-17.710001,-0.5314649,0.3443395,-0.6125845
16.82800006866455,9.73,-32.060001,-21.49,-0.557069,0.3316571,-0.5996628
16.847599983215332,7.07,-37.799999,-20.65,-0.5798016,0.3273498,-0.63771
16.867199897766113,7.0,-38.849998,-18.059999,-0.6642713,0.3517575,-0.6570926
16.886800050735474,8.33,-35.98,-16.59,-0.70519,0.3618077,-0.6795859
16.907000064849854,7.07,-31.57,-15.05,-0.7353406,0.3517575,-0.6815002
16.926599979400635,4.9,-27.02,-13.51,-0.7272048,0.3464931,-0.6882004
16.946199893951416,1.54,-23.66,-11.55,-0.7071043,0.3366822,-0.6704928
16.965800046920776,-0.14,-19.530001,-9.94,-0.7104544,0.3318964,-0.650871
16.986999988555908,0.21,-15.54,-9.45,-0.7104544,0.3318964,-0.650871
17.00659990310669,8.4,-13.72,-10.71,-0.7027971,0.3658756,-0.6602034
17.02620005607605,6.3,-12.25,-9.8,-0.7027971,0.3658756,-0.6602034
17.04579997062683,1.54,-11.48,-6.51,-0.7291191,0.3445788,-0.6324456
17.06599998474121,-0.49,-10.5,-4.27,-0.7585519,0.2510161,-0.6099523
17.085599899291992,2.17,-9.17,-4.41,-0.7528089,0.3318964,-0.5750158
17.105200052261353,7.28,-7.91,-6.51,-0.7358192,0.3457752,-0.6015771
17.124799966812134,8.19,-7.0,-7.14,-0.7312727,0.3137103,-0.5932019
17.144999980926514,4.13,-6.23,-6.3,-0.7044722,0.2615448,-0.581716
17.164599895477295,1.33,-5.53,-6.02,-0.6949005,0.2816453,-0.6046879
17.184200048446655,2.59,-4.41,-6.79,-0.7231368,0.2770988,-0.5977484
17.203799962997437,3.36,-3.92,-7.07,-0.7231368,0.2770988,-0.5977484
17.22499990463257,1.96,-3.29,-6.3,-0.7346228,0.2821239,-0.6075593
17.24460005760193,0.56,-2.24,-5.39,-0.7346228,0.2821239,-0.6075593
17.26419997215271,0.07,-1.19,-4.27,-0.7439551,0.2828417,-0.6066022
17.28379988670349,0.84,-0.42,-4.13,-0.7559196,0.2799702,-0.602295
17.30399990081787,1.54,-0.21,-4.2,-0.7506553,0.2730308,-0.6173703
17.32360005378723,1.33,0.14,-3.78,-0.7506553,0.2730308,-0.6173703
17.343199968338013,2.03,0.14,-3.71,-0.7470659,0.2747058,-0.6123452
17.362799882888794,3.36,0.0,-4.27,-0.7420408,0.2677664,-0.5977484
17.382999897003174,3.29,0.0,-4.34,-0.7415622,0.2653735,-0.6164131
17.402600049972534,2.59,-0.77,-3.85,-0.7609448,0.2675271,-0.6144988
17.422199964523315,1.75,-1.61,-3.15,-0.7609448,0.2675271,-0.6144988
17.441799879074097,0.42,-2.38,-1.75,-0.7585519,0.2636985,-0.6221561
17.463000059127808,0.84,-3.36,-1.33,-0.7571161,0.2615448,-0.6161738
17.48259997367859,1.96,-3.36,-1.47,-0.7532875,0.2742273,-0.6118666
17.50219988822937,1.19,-2.8,-1.12,-0.7351014,0.2512553,-0.6135417
17.52180004119873,0.35,-2.17,-0.91,-0.7370157,0.2349836,-0.605645
17.542999982833862,-0.63,-1.33,-0.7,-0.7370157,0.2349836,-0.605645
17.562599897384644,-0.35,-0.21,-1.19,-0.7434765,0.2558019,-0.6152167
17.582200050354004,1.54,0.35,-2.45,-0.7425194,0.2569983,-0.5996628
17.601799964904785,1.19,0.0,-2.8,-0.731512,0.241923,-0.6042093
17.621999979019165,-0.49,-0.98,-2.45,-0.7262476,0.2447945,-0.6128238
17.641599893569946,-0.35,-1.61,-2.66,-0.7245726,0.249341,-0.618806
17.661200046539307,1.82,-1.82,-3.85,-0.7362978,0.2357014,-0.6123452
17.680799961090088,2.66,-2.24,-4.13,-0.7362978,0.2357014,-0.6123452
17.700999975204468,1.75,-3.43,-3.08,-0.752091,0.2431195,-0.6207203
17.72059988975525,1.05,-4.83,-2.24,-0.7532875,0.2536483,-0.6295741
17.74020004272461,0.98,-6.65,-1.61,-0.7671663,0.2299585,-0.6156952
17.75979995727539,1.19,-7.91,-1.19,-0.7671663,0.2299585,-0.6156952
17.780999898910522,2.45,-8.75,-0.98,-0.7499374,0.2395301,-0.5991842
17.800600051879883,4.27,-8.68,-0.91,-0.759509,0.2467088,-0.5958341
17.820199966430664,5.53,-8.19,-0.49,-0.7537661,0.2373765,-0.5872197
17.839799880981445,5.04,-7.84,0.14,-0.7516124,0.2385729,-0.5927233
17.859999895095825,3.08,-6.86,1.26,-0.7664485,0.2258905,-0.6137809
17.879600048065186,2.52,-5.95,1.4,-0.7786523,0.2433588,-0.5946377
17.899199962615967,2.31,-5.18,1.33,-0.7786523,0.2433588,-0.5946377
17.918799877166748,1.12,-4.69,1.61,-0.7745843,0.2292406,-0.5951162
17.938999891281128,0.07,-4.2,1.19,-0.7547232,0.2316335,-0.5876982
17.95860004425049,-0.21,-3.92,0.63,-0.7477838,0.2163189,-0.5860232
17.97819995880127,-1.12,-3.71,0.77,-0.7477838,0.2163189,-0.5860232
17.99779987335205,-1.68,-3.57,1.33,-0.7547232,0.2251727,-0.5888947
18.01799988746643,-0.91,-4.06,1.19,-0.7688414,0.2227798,-0.53649
18.03760004043579,-0.14,-4.9,1.54,-0.7791309,0.2469481,-0.5848268
18.057199954986572,0.49,-4.97,2.38,-0.7791309,0.2469481,-0.5848268
18.076799869537354,2.03,-4.69,2.38,-0.7705164,0.2357014,-0.557069
18.098000049591064,1.68,-3.85,2.38,-0.7587912,0.2294799,-0.5699907
18.117599964141846,0.28,-2.8,2.31,-0.7587912,0.2294799,-0.5699907
18.137199878692627,-1.05,-2.03,1.54,-0.7609448,0.2273263,-0.577648
18.156800031661987,-1.05,-1.12,0.21,-0.77267,0.2333085,-0.5762123
18.177000045776367,-1.05,-1.54,-0.14,-0.7695592,0.2294799,-0.5821945
18.19659996032715,-1.26,-2.1,-0.21,-0.7695592,0.2294799,-0.5821945
18.21619987487793,-1.12,-2.59,-0.14,-0.7738665,0.2443159,-0.5781266
18.23580002784729,-0.35,-3.29,-0.21,-0.7774559,0.23283,-0.5721443
18.256999969482422,-0.28,-5.11,0.28,-0.7774559,0.23283,-0.5721443
18.276599884033203,0.21,-6.86,0.91,-0.7724308,0.2380944,-0.5793231
18.296200037002563,1.61,-7.84,1.33,-0.7786523,0.2321121,-0.5630513
18.315799951553345,2.24,-7.35,1.19,-0.7786523,0.2321121,-0.5630513
18.336999893188477,1.12,-5.67,0.63,-0.7647734,0.2313942,-0.5632905
18.356600046157837,-0.14,-3.92,0.56,-0.7647734,0.2239762,-0.5506082
18.376199960708618,-1.33,-3.08,1.47,-0.7647734,0.2239762,-0.5506082
18.3957998752594,-1.26,-2.94,2.45,-0.7556804,0.2390515,-0.5518046
18.41599988937378,0.21,-3.22,2.73,-0.7879847,0.2548447,-0.571905
18.43560004234314,1.47,-2.8,2.52,-0.8131102,0.2467088,-0.585066
18.45519995689392,0.63,-1.96,2.31,-0.8131102,0.2467088,-0.585066
18.474799871444702,-0.35,-1.12,2.45,-0.80641,0.2368979,-0.5726229
18.494999885559082,0.35,-0.91,2.17,-0.7884632,0.2409658,-0.5654442
18.514600038528442,1.61,-1.26,0.98,-0.7544839,0.2414444,-0.5556333
18.534199953079224,1.68,-2.31,0.0,-0.7544839,0.2414444,-0.5556333
18.553800106048584,1.33,-3.22,-0.42,-0.7511339,0.2400087,-0.5649656
18.573999881744385,0.77,-4.62,-0.91,-0.7511339,0.2400087,-0.5649656
18.593600034713745,0.91,-5.67,-0.49,-0.7638163,0.2278049,-0.5312256
18.613199949264526,2.03,-6.44,0.63,-0.7764987,0.2495803,-0.547976
18.632800102233887,2.52,-5.81,2.17,-0.7908561,0.2562804,-0.5465402
18.65400004386902,5.6,-5.32,2.17,-0.8088029,0.2670485,-0.5771694
18.6735999584198,5.18,-3.71,1.26,-0.8088029,0.2670485,-0.5771694
18.69319987297058,2.38,-1.61,1.75,-0.8126316,0.2440766,-0.5714264
18.71280002593994,0.7,-0.07,1.26,-0.7882239,0.2335478,-0.5546761
18.73300004005432,1.19,1.4,-0.56,-0.7664485,0.2234976,-0.5575476
18.752599954605103,0.77,2.38,-1.54,-0.7664485,0.2234976,-0.5575476
18.772200107574463,-0.7,2.73,-1.54,-0.7494588,0.2191904,-0.5482152
18.791800022125244,-0.28,2.17,-1.89,-0.7602269,0.2416837,-0.5673585
18.812000036239624,0.14,0.63,-1.82,-0.7738665,0.2400087,-0.5637691
18.831599950790405,0.63,-1.47,-1.12,-0.7738665,0.2400087,-0.5637691
18.851200103759766,1.47,-2.73,-0.91,-0.8088029,0.2342657,-0.5594619
18.870800018310547,1.4,-2.94,0.14,-0.8006671,0.2459909,-0.5573083
18.89199995994568,1.33,-2.17,0.98,-0.8006671,0.2459909,-0.5573083
18.91159987449646,0.56,-0.84,1.54,-0.7987527,0.240248,-0.5522832
18.93120002746582,-0.28,1.54,2.03,-0.7930098,0.2199083,-0.5585048
18.9507999420166,-1.75,3.5,2.66,-0.7812845,0.2153617,-0.5716658
18.97099995613098,-3.36,4.27,3.43,-0.7812845,0.2153617,-0.5716658
18.990599870681763,-2.66,4.55,3.01,-0.7910954,0.2299585,-0.5690335
19.010200023651123,-0.98,4.27,2.1,-0.7882239,0.2266084,-0.5845874
19.029799938201904,-0.14,3.99,2.03,-0.7843953,0.2318728,-0.5750158
19.049999952316284,1.26,2.66,2.1,-0.7843953,0.2318728,-0.5750158
19.069600105285645,2.31,0.98,2.73,-0.7834381,0.2297192,-0.5711872
19.089200019836426,2.66,0.35,3.85,-0.7829595,0.2215833,-0.5728622
19.108799934387207,3.15,0.14,4.27,-0.780088,0.2364193,-0.5750158
19.12999987602234,4.06,0.77,3.99,-0.780088,0.2364193,-0.5750158
19.1496000289917,3.92,2.59,3.57,-0.782481,0.2325907,-0.5757337
19.16919994354248,3.01,3.85,4.13,-0.7846345,0.2208654,-0.5747765
19.18880009651184,1.68,5.32,5.46,-0.7846345,0.2208654,-0.5747765
19.210000038146973,0.35,7.84,7.14,-0.7906168,0.2333085,-0.6037307
19.229599952697754,-0.77,10.15,7.77,-0.7906168,0.2333085,-0.6037307
19.249200105667114,-0.98,12.32,8.19,-0.7707557,0.228762,-0.6099523
19.268800020217896,-1.82,13.58,8.61,-0.7760201,0.2455124,-0.6118666
19.289000034332275,-2.45,14.14,8.05,-0.7592697,0.223019,-0.6015771
19.308599948883057,-2.45,12.88,6.79,-0.7408443,0.2357014,-0.6061236
19.328200101852417,-2.31,10.36,5.6,-0.7190689,0.2232583,-0.5910483
19.3478000164032,-2.59,7.14,5.04,-0.7087794,0.2376158,-0.5927233
19.368000030517578,-2.38,3.78,4.48,-0.7226583,0.2488624,-0.5934412
19.38759994506836,-1.19,0.77,3.78,-0.7384514,0.2306763,-0.5774087
19.40720009803772,0.56,-2.45,2.59,-0.7384514,0.2306763,-0.5774087
19.4268000125885,1.12,-5.95,1.75,-0.7214618,0.2529304,-0.5975091
19.447999954223633,0.56,-8.05,0.42,-0.7214618,0.2529304,-0.5975091
19.467600107192993,-0.07,-9.1,-1.68,-0.7382122,0.23618,-0.5958341
19.487200021743774,0.0,-8.96,-2.94,-0.7348621,0.2395301,-0.5975091
19.506799936294556,0.28,-7.63,-3.64,-0.7406051,0.2445552,-0.5941591
19.526999950408936,0.21,-5.53,-3.36,-0.7406051,0.2445552,-0.5941591
19.546600103378296,-0.21,-4.34,-2.45,-0.7654913,0.2646556,-0.6018164
19.566200017929077,0.28,-3.43,-1.61,-0.7772165,0.2407265,-0.5946377
19.58579993247986,0.56,-1.68,-0.91,-0.7788916,0.2471874,-0.622874
19.60599994659424,-0.28,-0.35,0.07,-0.7798488,0.2546054,-0.6058843
19.6256000995636,0.21,0.28,0.35,-0.7798488,0.2546054,-0.6058843
19.64520001411438,0.56,0.49,0.84,-0.7755415,0.2445552,-0.5896125
19.66479992866516,0.91,0.56,1.47,-0.7554411,0.2383337,-0.5824338
19.68499994277954,1.82,1.12,1.75,-0.7451516,0.2424016,-0.5783659
19.7046000957489,2.66,0.91,1.68,-0.7451516,0.2424016,-0.5783659
19.724200010299683,3.36,-0.56,1.12,-0.7434765,0.2462302,-0.5831517
19.743799924850464,2.87,-2.66,0.21,-0.7513731,0.256759,-0.5865018
19.765000104904175,1.68,-3.92,-0.98,-0.7583126,0.2464695,-0.5929626
19.784600019454956,2.03,-4.27,-2.38,-0.7566375,0.2409658,-0.5795623
19.804199934005737,2.45,-4.83,-2.66,-0.7499374,0.2385729,-0.5699907
19.823800086975098,2.94,-4.06,-2.03,-0.7499374,0.2385729,-0.5699907
19.844000101089478,2.8,-2.17,-1.05,-0.7686021,0.2412051,-0.5967913
19.86360001564026,1.4,0.21,0.0,-0.7810452,0.2232583,-0.6030128
19.88319993019104,0.21,2.87,-0.49,-0.7831988,0.2306763,-0.615456
19.9028000831604,-0.07,4.2,-0.63,-0.7831988,0.2306763,-0.615456
19.924000024795532,0.28,4.41,0.21,-0.7650127,0.2450338,-0.5934412
19.943599939346313,1.05,3.36,1.68,-0.7760201,0.2337871,-0.592484
19.963200092315674,0.56,2.17,2.59,-0.7760201,0.2337871,-0.592484
19.982800006866455,1.19,1.82,2.73,-0.7769773,0.2321121,-0.5922448
20.003999948501587,1.68,1.75,2.73,-0.7729093,0.2378551,-0.5905697
20.023600101470947,1.96,1.75,2.8,-0.7568769,0.230437,-0.5771694
20.04320001602173,0.63,1.4,3.36,-0.7468266,0.2342657,-0.5927233
20.06279993057251,-0.91,1.12,3.43,-0.7453909,0.2337871,-0.5707086
20.08299994468689,0.28,0.84,2.31,-0.7468266,0.2261298,-0.5872197
20.10260009765625,0.21,-0.07,1.33,-0.7468266,0.2261298,-0.5872197
20.12220001220703,0.21,-0.98,0.49,-0.7508945,0.2500589,-0.5927233
20.141799926757812,1.68,-1.68,-0.91,-0.7628591,0.2366586,-0.6030128
20.161999940872192,2.24,-2.66,-2.1,-0.7621412,0.2309156,-0.6104309
20.181600093841553,1.26,-2.87,-1.96,-0.7621412,0.2309156,-0.6104309
20.201200008392334,1.68,-1.89,-1.75,-0.763577,0.2443159,-0.6104309
20.220799922943115,1.89,-1.26,-1.61,-0.7616626,0.2237369,-0.6008592
20.240999937057495,1.33,-0.7,-1.19,-0.7585519,0.223019,-0.6008592
20.260600090026855,0.98,-0.91,-0.98,-0.7585519,0.223019,-0.6008592
20.280200004577637,1.82,-0.84,-1.26,-0.7556804,0.2237369,-0.596552
20.299799919128418,2.17,-1.61,-1.33,-0.7650127,0.2189511,-0.5917662
20.32100009918213,1.61,-2.59,-1.19,-0.7650127,0.2189511,-0.5917662
20.34060001373291,1.68,-3.57,-1.05,-0.7602269,0.2321121,-0.6089951
20.36019992828369,1.4,-4.34,-0.42,-0.7666878,0.2251727,-0.5994235
20.37980008125305,0.98,-3.99,0.84,-0.7666878,0.2251727,-0.5994235
20.40000009536743,0.7,-2.66,1.96,-0.7705164,0.217276,-0.5912876
20.419600009918213,-0.14,-0.21,3.71,-0.7659699,0.2019614,-0.5798016
20.439199924468994,-2.17,3.08,5.88,-0.7604662,0.2189511,-0.5967913
20.458800077438354,-2.24,5.67,6.79,-0.7604662,0.2189511,-0.5967913
20.479000091552734,-0.35,7.98,5.6,-0.7518517,0.2218226,-0.5869803
20.498600006103516,0.14,9.17,3.99,-0.7329477,0.2268477,-0.6156952
20.518199920654297,-0.91,7.7,2.24,-0.7434765,0.2325907,-0.6200025
20.537800073623657,-1.33,5.39,0.49,-0.7434765,0.2325907,-0.6200025
20.55900001525879,-1.4,2.45,-0.91,-0.7518517,0.2412051,-0.6087558
20.57859992980957,-0.35,-1.33,-2.45,-0.737255,0.2349836,-0.598227
20.59820008277893,0.91,-4.2,-2.73,-0.737255,0.2349836,-0.598227
20.617799997329712,3.22,-6.09,-3.01,-0.7370157,0.2467088,-0.596552
20.638000011444092,4.83,-7.14,-2.94,-0.7535267,0.2225405,-0.5991842
20.657599925994873,3.71,-7.7,-2.31,-0.7566375,0.2297192,-0.609713
20.677200078964233,0.98,-7.0,-0.56,-0.7566375,0.2297192,-0.609713
20.696799993515015,0.49,-4.69,0.49,-0.7671663,0.2278049,-0.6018164
20.717000007629395,1.4,-1.82,0.77,-0.7779344,0.2187118,-0.6042093
20.736599922180176,2.24,0.91,0.42,-0.7686021,0.2136867,-0.5987056
20.756200075149536,2.1,2.73,0.21,-0.7686021,0.2136867,-0.5987056
20.775799989700317,3.15,4.34,0.07,-0.7669271,0.213926,-0.5967913
20.79699993133545,4.13,5.04,-0.14,-0.7496981,0.2244548,-0.6018164
20.81660008430481,4.06,4.48,0.07,-0.7496981,0.2244548,-0.6018164
20.83619999885559,3.08,3.01,0.0,-0.7341442,0.2105759,-0.6149774
20.855799913406372,0.28,1.54,0.91,-0.7461087,0.2158403,-0.6209597
20.877000093460083,0.14,0.21,1.75,-0.7461087,0.2158403,-0.6209597
20.896600008010864,1.68,-0.91,2.1,-0.7590304,0.213926,-0.6089951
20.916199922561646,3.92,-0.63,2.66,-0.7681235,0.2211047,-0.6116273
20.935800075531006,1.89,1.05,3.29,-0.7681235,0.2211047,-0.6116273
20.956000089645386,-1.75,3.15,4.62,-0.7580733,0.2136867,-0.6063629
20.975600004196167,-5.95,5.25,6.16,-0.750416,0.2261298,-0.6214382
20.99519991874695,-6.58,7.35,6.93,-0.7662092,0.2323514,-0.6343599
21.01480007171631,-5.11,8.89,5.67,-0.7662092,0.2323514,-0.6343599
21.03500008583069,-5.46,8.89,4.97,-0.7537661,0.2390515,-0.645128
21.05460000038147,-7.56,7.91,5.39,-0.7489802,0.2285227,-0.6365136
21.07419991493225,-7.49,6.23,5.74,-0.7264869,0.2452731,-0.6310099
21.09380006790161,-4.06,3.64,4.48,-0.7264869,0.2452731,-0.6310099
21.115000009536743,-0.28,-0.56,1.96,-0.6929862,0.221344,-0.6159346
21.134599924087524,0.7,-5.11,-1.26,-0.7063865,0.2519732,-0.6243097
21.154200077056885,1.05,-9.03,-5.53,-0.7063865,0.2519732,-0.6243097
21.173799991607666,2.52,-11.97,-9.8,-0.7068651,0.2258905,-0.6140202
21.194000005722046,1.19,-12.74,-11.41,-0.7449123,0.2596305,-0.622874
21.213599920272827,0.63,-11.55,-11.34,-0.7494588,0.2648949,-0.6207203
21.233200073242188,4.2,-8.82,-10.78,-0.7494588,0.2648949,-0.6207203
21.25279998779297,2.94,-6.51,-7.84,-0.7530482,0.2234976,-0.6144988
21.27300000190735,1.33,-3.99,-3.99,-0.7949241,0.2191904,-0.6200025
21.29259991645813,1.19,-0.49,-0.84,-0.7968384,0.215601,-0.6156952
21.31220006942749,0.56,2.94,1.61,-0.7968384,0.215601,-0.6156952
21.33179998397827,-1.4,5.88,4.76,-0.780088,0.2014829,-0.6264633
21.352999925613403,-2.8,9.45,8.12,-0.8104779,0.223019,-0.6341207
21.372600078582764,-5.46,14.14,13.16,-0.8104779,0.223019,-0.6341207
21.392199993133545,-7.35,19.18,18.9,-0.8028207,0.2357014,-0.652546
21.411799907684326,-12.95,25.83,27.299999,-0.8470895,0.2519732,-0.7006435
21.431999921798706,-19.18,35.0,36.75,-0.8600112,0.2782952,-0.7195475
21.451600074768066,-21.280001,45.009998,42.700001,-0.8600112,0.2782952,-0.7195475
21.471199989318848,-19.32,54.040001,44.52,-0.8001884,0.2912169,-0.7094973
21.49079990386963,-19.879999,58.59,43.540001,-0.6602034,0.2354622,-0.6511103
21.51099991798401,-23.59,57.540001,39.970001,-0.5874589,0.2507768,-0.6137809
21.53060007095337,-25.690001,50.610001,33.110001,-0.5874589,0.2507768,-0.6137809
21.55019998550415,-24.5,38.290001,23.030001,-0.5135181,0.2541268,-0.5795623
21.56979990005493,-16.24,22.68,9.17,-0.4077516,0.2234976,-0.4697278
21.591000080108643,-8.19,3.08,-3.15,-0.4077516,0.2234976,-0.4697278
21.610599994659424,1.75,-18.690001,-10.78,-0.3196925,0.223019,-0.4644635
21.630199909210205,14.84,-39.200001,-18.27,-0.4390986,0.3795152,-0.4998785
21.649800062179565,22.120001,-59.220001,-23.940001,-0.4390986,0.3795152,-0.4998785
21.671000003814697,21.700001,-70.910004,-26.530001,-0.7382122,0.279731,-0.6716893
21.69059991836548,21.77,-75.949997,-29.540001,-0.80306,0.3835832,-0.7284012
21.71020007133484,27.860001,-78.889999,-35.630001,-0.80306,0.3835832,-0.7284012
21.72979998588562,33.110001,-76.93,-40.32,-0.7925312,0.3522361,-0.6745608
21.75,22.960001,-73.5,-37.240002,-0.844218,0.2347443,-0.731512
21.76959991455078,10.78,-64.120003,-30.66,-0.8126316,0.2354622,-0.6659463
21.78920006752014,7.7,-51.380001,-24.710001,-0.8126316,0.2354622,-0.6659463
21.808799982070923,11.62,-35.84,-20.16,-0.8279462,0.3108388,-0.6453673
21.828999996185303,11.06,-20.299999,-14.28,-0.8336892,0.2316335,-0.5884161
21.848599910736084,3.99,-6.09,-6.37,-0.8595325,0.195022,-0.5984663
21.868200063705444,-2.52,6.16,0.21,-0.8595325,0.195022,-0.5984663
21.887799978256226,-6.02,14.7,4.83,-0.889444,0.1923898,-0.5731015
21.908999919891357,-8.75,19.879999,8.75,-0.8679078,0.2194297,-0.564487
21.928600072860718,-12.81,22.33,13.23,-0.8679078,0.2194297,-0.564487
21.9481999874115,-11.83,22.540001,15.190001,-0.8262712,0.2158403,-0.5508474
21.96779990196228,-6.16,20.860001,14.98,-0.7547232,0.2500589,-0.5491724
21.98799991607666,-0.98,16.66,13.72,-0.716676,0.2232583,-0.5613762
22.00760006904602,-0.49,10.71,12.46,-0.716676,0.2232583,-0.5613762
22.0271999835968,1.61,4.13,8.61,-0.6960969,0.2469481,-0.558744
22.046799898147583,2.52,-0.77,4.48,-0.703515,0.2486232,-0.5857839
22.066999912261963,1.96,-3.01,0.84,-0.7346228,0.2115331,-0.5905697
22.086600065231323,1.4,-4.27,-1.33,-0.7346228,0.2115331,-0.5905697
22.106199979782104,2.38,-5.11,-3.01,-0.7396479,0.2416837,-0.5666406
22.125799894332886,2.94,-5.39,-3.64,-0.7367764,0.2514946,-0.5750158
22.145999908447266,1.19,-4.27,-3.43,-0.7719522,0.2455124,-0.5838696
22.165600061416626,1.75,-3.22,-3.22,-0.7719522,0.2455124,-0.5838696
22.185199975967407,3.5,-1.33,-2.94,-0.7908561,0.2593912,-0.5692729
22.20479989051819,1.68,0.49,-1.26,-0.7891811,0.2593912,-0.574298
22.2260000705719,-0.7,3.29,1.05,-0.7951633,0.2445552,-0.5762123
22.24559998512268,-1.4,7.07,3.64,-0.7961205,0.2462302,-0.5800409
22.265199899673462,-1.26,10.78,6.02,-0.8040172,0.2629806,-0.5989449
22.284800052642822,-3.36,14.56,8.33,-0.8083243,0.2541268,-0.5872197
22.305000066757202,-5.95,18.27,10.43,-0.8059315,0.2371372,-0.6080379
22.324599981307983,-6.93,21.0,11.41,-0.7729093,0.2392908,-0.6118666
22.344199895858765,-6.3,22.540001,10.85,-0.7516124,0.260827,-0.6180882
22.363800048828125,-6.02,22.540001,9.66,-0.7142831,0.2443159,-0.6161738
22.384000062942505,-5.81,21.139999,8.12,-0.7142831,0.2443159,-0.6161738
22.403599977493286,-5.81,18.41,6.86,-0.6996863,0.2445552,-0.6006199
22.423199892044067,-5.25,14.91,5.74,-0.7114116,0.256759,-0.6111487
22.442800045013428,-4.62,11.2,5.18,-0.7123687,0.2790131,-0.6018164
22.46399998664856,-2.87,7.35,4.62,-0.7123687,0.2790131,-0.6018164
22.48359990119934,-1.33,3.71,3.92,-0.7049507,0.2754237,-0.5975091
22.5032000541687,1.61,0.77,1.89,-0.7049507,0.2754237,-0.5975091
22.522799968719482,3.36,-1.61,-0.07,-0.7011221,0.2770988,-0.6058843
22.543999910354614,1.89,-2.87,-1.61,-0.6980113,0.2694415,-0.6207203
22.563600063323975,1.68,-2.94,-3.64,-0.6980113,0.2694415,-0.6207203
22.583199977874756,2.73,-2.38,-5.18,-0.7044722,0.2651342,-0.6200025
22.602799892425537,0.35,-0.77,-5.04,-0.7276834,0.2680057,-0.6417779
22.622999906539917,-2.03,2.17,-3.92,-0.7575947,0.2596305,-0.6604426
22.642600059509277,-1.61,4.76,-3.22,-0.7575947,0.2596305,-0.6604426
22.66219997406006,-0.21,7.0,-3.57,-0.7432373,0.272313,-0.6592462
22.68179988861084,1.19,8.12,-4.27,-0.7324692,0.23283,-0.6939434
22.70199990272522,0.35,6.79,-3.71,-0.7068651,0.2366586,-0.6341207
22.72160005569458,0.21,3.85,-3.22,-0.7068651,0.2366586,-0.6341207
22.74119997024536,0.21,0.98,-2.31,-0.7142831,0.249341,-0.6477602
22.760799884796143,4.06,-0.56,-2.59,-0.718351,0.2467088,-0.6429744
22.782000064849854,6.02,-1.47,-1.89,-0.7329477,0.2450338,-0.6563747
22.801599979400635,5.74,-2.8,-0.35,-0.7501767,0.2445552,-0.6410601
22.821199893951416,3.71,-3.64,1.26,-0.7307941,0.2536483,-0.6391458
22.840800046920776,1.61,-4.48,1.89,-0.7054293,0.2323514,-0.6355564
22.861000061035156,0.56,-4.2,1.05,-0.7054293,0.2323514,-0.6355564
22.880599975585938,-0.42,-3.57,-0.28,-0.6958577,0.2208654,-0.643453
22.90019989013672,0.63,-3.99,-1.54,-0.7020792,0.2404873,-0.6355564
22.91980004310608,2.8,-4.34,-2.59,-0.7188296,0.2433588,-0.6470424
22.94000005722046,1.82,-4.2,-2.45,-0.7188296,0.2433588,-0.6470424
22.95959997177124,0.49,-3.99,-1.19,-0.7307941,0.2366586,-0.6460852
22.97919988632202,0.56,-3.85,-0.14,-0.7336656,0.2428802,-0.6424958
22.998800039291382,2.24,-4.13,0.42,-0.728162,0.2333085,-0.6353171
23.039599895477295,2.1,-3.78,0.98,-0.728162,0.2333085,-0.6353171
23.059200048446655,2.31,-4.06,0.0,-0.7221797,0.2263691,-0.6369921
23.078799962997437,0.49,-4.9,-0.42,-0.7221797,0.2263691,-0.6369921
23.098999977111816,-2.24,-5.46,-0.07,-0.7212225,0.2366586,-0.6429744
23.118599891662598,0.21,-5.53,-0.56,-0.7214618,0.2397694,-0.6334028
23.138200044631958,2.66,-6.02,-0.84,-0.7348621,0.2474267,-0.630292
23.15779995918274,2.8,-5.6,-0.21,-0.7348621,0.2474267,-0.630292
23.17799997329712,-0.63,-5.18,0.84,-0.7386907,0.2333085,-0.6247883
23.1975998878479,-1.33,-4.13,1.61,-0.7343835,0.2368979,-0.6283777
23.21720004081726,-0.98,-3.29,1.4,-0.7322299,0.2577162,-0.6293348
23.236799955368042,-0.91,-3.29,0.77,-0.7322299,0.2577162,-0.6293348
23.257999897003174,-0.28,-3.85,-0.42,-0.7228975,0.2392908,-0.6207203
23.277600049972534,1.05,-4.69,-1.54,-0.7317513,0.2519732,-0.6135417
23.297199964523315,2.31,-5.39,-2.45,-0.7317513,0.2519732,-0.6135417
23.316799879074097,1.19,-6.16,-2.52,-0.7353406,0.2395301,-0.6152167
23.338000059127808,-0.77,-6.23,-1.75,-0.7425194,0.2383337,-0.6195239
23.35759997367859,-1.61,-5.32,-0.56,-0.742998,0.2311549,-0.6144988
23.37719988822937,-1.54,-4.27,0.63,-0.7413229,0.2438373,-0.6219168
23.39680004119873,0.35,-2.87,1.05,-0.7418015,0.227087,-0.6195239
23.41700005531311,0.77,-1.61,1.19,-0.7418015,0.227087,-0.6195239
23.43659996986389,-0.63,-1.47,0.91,-0.7556804,0.2400087,-0.6109094
23.456199884414673,-2.87,-2.03,1.19,-0.7485016,0.2378551,-0.6185668
23.475800037384033,-3.36,-2.38,1.54,-0.7327085,0.2510161,-0.6109094
23.496000051498413,0.35,-2.8,1.19,-0.7327085,0.2510161,-0.6109094
23.515599966049194,2.45,-3.15,0.98,-0.7252904,0.2464695,-0.6075593
23.535199880599976,0.77,-3.15,1.4,-0.7374943,0.2371372,-0.6077987
23.554800033569336,-0.84,-3.15,1.68,-0.7396479,0.2416837,-0.6149774
23.575999975204468,1.19,-3.08,0.77,-0.7396479,0.2416837,-0.6149774
23.59559988975525,1.61,-3.43,0.21,-0.73893,0.2433588,-0.6133023
23.61520004272461,-0.28,-3.43,0.77,-0.746348,0.2371372,-0.6087558
23.63479995727539,-1.68,-3.22,1.33,-0.746348,0.2371372,-0.6087558
23.65499997138977,-2.03,-3.08,1.54,-0.7456302,0.2467088,-0.6032521
23.67459988594055,0.07,-2.8,1.96,-0.7410836,0.2294799,-0.5955948
23.694200038909912,1.82,-3.08,1.96,-0.7408443,0.2507768,-0.6025342
23.713799953460693,1.96,-3.15,2.1,-0.7408443,0.2507768,-0.6025342
23.733999967575073,0.0,-2.94,1.89,-0.7394086,0.2340264,-0.5960734
23.753599882125854,-0.63,-2.45,1.19,-0.7293584,0.2285227,-0.5943984
23.773200035095215,0.14,-2.17,-0.21,-0.7396479,0.2424016,-0.6013378
23.792799949645996,0.63,-2.38,-0.98,-0.746348,0.2335478,-0.6037307
23.812999963760376,0.98,-2.52,-1.47,-0.746348,0.2335478,-0.6037307
23.832599878311157,0.35,-3.01,-0.77,-0.7528089,0.2519732,-0.6058843
23.852200031280518,0.28,-3.57,-0.14,-0.7501767,0.2364193,-0.5984663
23.8717999458313,1.82,-3.43,0.35,-0.7568769,0.2337871,-0.6001413
23.89299988746643,2.38,-3.78,0.77,-0.7568769,0.2337871,-0.6001413
23.91260004043579,0.7,-4.34,1.47,-0.7662092,0.2330693,-0.6044486
23.932199954986572,-0.77,-4.13,1.68,-0.7662092,0.2330693,-0.6044486
23.951799869537354,-0.07,-3.64,1.33,-0.7573554,0.2392908,-0.6066022
23.971999883651733,1.33,-2.94,0.77,-0.7573554,0.2330693,-0.6049272
23.991600036621094,1.26,-2.31,0.77,-0.7688414,0.2380944,-0.6001413
24.011199951171875,0.56,-1.54,0.84,-0.7688414,0.2380944,-0.6001413
24.030800104141235,0.0,-1.05,1.05,-0.7513731,0.2254119,-0.5929626
24.050999879837036,0.98,-0.7,1.47,-0.7513731,0.2254119,-0.5929626
24.070600032806396,1.47,-0.49,1.47,-0.7453909,0.223019,-0.5941591
24.090199947357178,0.84,-0.42,1.19,-0.7516124,0.2208654,-0.5991842
24.109800100326538,-0.14,-0.63,1.4,-0.7566375,0.2337871,-0.589134
24.13100004196167,1.19,-1.61,1.12,-0.7494588,0.23283,-0.5910483
24.15059995651245,3.08,-2.1,0.7,-0.7494588,0.23283,-0.5910483
24.170199871063232,2.38,-2.31,1.12,-0.7525696,0.228762,-0.6006199
24.189800024032593,1.4,-1.68,1.47,-0.7700378,0.2366586,-0.6032521
24.210999965667725,1.4,-0.7,1.19,-0.7700378,0.2366586,-0.6032521
24.230599880218506,0.35,-0.07,1.54,-0.763577,0.2254119,-0.592484
24.250200033187866,-0.42,0.42,2.45,-0.7532875,0.2428802,-0.5953555
24.269799947738647,1.75,0.49,1.96,-0.7470659,0.2357014,-0.5979877
24.289999961853027,2.17,0.28,1.47,-0.7470659,0.2357014,-0.5979877
24.30959987640381,0.07,-0.49,1.82,-0.750416,0.2232583,-0.6037307
24.32920002937317,0.49,-1.33,1.61,-0.7410836,0.2373765,-0.6030128
24.34879994392395,2.66,-2.31,0.77,-0.7523303,0.2342657,-0.5967913
24.369999885559082,3.36,-3.5,0.98,-0.7523303,0.2342657,-0.5967913
24.389600038528442,2.1,-3.71,1.54,-0.7468266,0.2330693,-0.6015771
24.409199953079224,2.45,-3.01,1.61,-0.7468266,0.2330693,-0.6015771
24.428800106048584,2.38,-2.8,1.61,-0.7485016,0.2285227,-0.5987056
24.448999881744385,1.47,-2.66,1.75,-0.7485016,0.2285227,-0.5987056
24.468600034713745,1.75,-1.96,1.61,-0.7559196,0.2390515,-0.602295
24.488199949264526,2.1,-1.68,0.98,-0.7568769,0.2409658,-0.6066022
24.507800102233887,1.96,-1.26,0.77,-0.7516124,0.2318728,-0.6013378
24.527999877929688,1.12,-0.84,0.84,-0.7516124,0.2318728,-0.6013378
24.547600030899048,0.42,-0.63,1.33,-0.7587912,0.2309156,-0.5979877
24.56719994544983,1.68,-0.49,0.98,-0.7640555,0.2232583,-0.5994235
24.58680009841919,2.59,-0.77,0.49,-0.7640555,0.2232583,-0.5994235
24.60699987411499,1.47,-1.47,1.12,-0.7566375,0.2299585,-0.6082772
24.62660002708435,1.26,-2.03,1.54,-0.7607055,0.240248,-0.6034914
24.646199941635132,1.96,-2.31,1.26,-0.7604662,0.2359407,-0.6034914
24.665800094604492,2.38,-2.73,0.7,-0.7604662,0.2359407,-0.6034914
24.687000036239624,2.31,-2.59,0.63,-0.7686021,0.2318728,-0.6054058
24.706599950790405,2.59,-2.1,0.7,-0.7686021,0.2318728,-0.6054058
24.726200103759766,2.8,-1.82,0.28,-0.7501767,0.221344,-0.5989449
24.745800018310547,1.05,-2.03,0.63,-0.7494588,0.217276,-0.5953555
24.766000032424927,-0.14,-2.17,0.98,-0.7568769,0.2244548,-0.5999021
24.785599946975708,2.03,-2.1,0.77,-0.7657306,0.2254119,-0.5967913
24.80520009994507,3.15,-2.03,0.98,-0.7657306,0.2254119,-0.5967913
24.82480001449585,2.52,-2.1,1.61,-0.7592697,0.2239762,-0.6051664
24.84500002861023,1.82,-2.45,1.82,-0.7599876,0.2206261,-0.6018164
24.86459994316101,1.89,-2.17,1.89,-0.7659699,0.2215833,-0.5915269
24.88420009613037,2.87,-2.38,1.33,-0.7659699,0.2215833,-0.5915269
24.903800010681152,3.29,-2.8,0.49,-0.7724308,0.2141653,-0.5960734
24.924999952316284,2.66,-3.08,-0.35,-0.7724308,0.2141653,-0.5960734
24.944600105285645,1.96,-2.8,-0.7,-0.7688414,0.2108152,-0.5898519
24.964200019836426,1.4,-2.1,-0.07,-0.7623805,0.2268477,-0.5900911
24.983799934387207,2.17,-1.68,0.77,-0.7671663,0.2227798,-0.5922448
25.00499987602234,2.03,-1.54,1.61,-0.7671663,0.2227798,-0.5922448
25.0246000289917,2.45,-1.19,2.52,-0.7872668,0.2203868,-0.5991842
25.04419994354248,3.01,-0.84,2.8,-0.7741058,0.2148831,-0.6006199
25.06380009651184,2.31,-0.98,3.22,-0.7741058,0.2148831,-0.6006199
25.08399987220764,1.05,-1.54,3.22,-0.7532875,0.2191904,-0.5963127
25.103600025177002,0.91,-1.61,2.73,-0.7418015,0.2084223,-0.5876982
25.123199939727783,1.47,-1.68,1.61,-0.7439551,0.2158403,-0.5716658
25.142800092697144,2.59,-1.61,0.56,-0.7439551,0.2158403,-0.5716658
25.163000106811523,3.29,-1.82,-0.42,-0.7341442,0.1926291,-0.5613762
25.182600021362305,2.94,-1.26,-1.05,-0.7382122,0.1861683,-0.5539582
25.202199935913086,1.61,0.14,-0.84,-0.7284012,0.1828182,-0.5525225
25.221800088882446,0.14,2.24,0.07,-0.7284012,0.1828182,-0.5525225
25.243000030517578,-1.12,3.01,1.47,-0.7300763,0.2187118,-0.5664013
25.26259994506836,-0.56,1.96,1.47,-0.7566375,0.2347443,-0.5958341
25.28220009803772,0.35,-1.12,0.63,-0.7566375,0.2347443,-0.5958341
25.3018000125885,0.21,-5.74,-0.77,-0.7712343,0.281406,-0.6587676
25.32200002670288,2.52,-11.13,-4.2,-0.7903775,0.2792524,-0.6597248
25.341599941253662,4.97,-15.96,-8.05,-0.8166995,0.2397694,-0.6695357
25.361200094223022,5.81,-17.92,-10.5,-0.8166995,0.2397694,-0.6695357
25.380800008773804,5.53,-14.28,-10.92,-0.8411072,0.1911934,-0.6417779
25.401000022888184,1.89,-7.7,-8.12,-0.8358428,0.1955006,-0.6085166
25.420599937438965,-0.91,0.42,-3.15,-0.8272284,0.1837753,-0.5714264
25.440200090408325,0.07,8.05,1.4,-0.8272284,0.1837753,-0.5714264
25.459800004959106,-0.35,13.23,5.39,-0.7961205,0.1691786,-0.5448652
25.48099994659424,-2.52,14.91,7.91,-0.7798488,0.1768359,-0.5525225
25.5006000995636,-4.48,13.02,8.54,-0.7798488,0.1768359,-0.5525225
25.52020001411438,-4.27,9.31,7.56,-0.7772165,0.1708536,-0.5575476
25.53979992866516,-3.43,4.83,5.74,-0.77267,0.1749216,-0.5632905
25.55999994277954,-2.17,0.91,3.78,-0.7688414,0.1708536,-0.5451045
25.5796000957489,-0.84,-3.01,2.87,-0.7688414,0.1708536,-0.5451045
25.599200010299683,-1.61,-5.74,5.18,-0.7348621,0.2105759,-0.5762123
25.618799924850464,-0.84,-7.49,10.08,-0.7494588,0.23618,-0.598227
25.638999938964844,2.66,-7.84,14.49,-0.7820024,0.2893026,-0.6503924
25.658600091934204,5.74,-7.21,16.1,-0.7820024,0.2893026,-0.6503924
25.678200006484985,4.27,-5.53,15.26,-0.8143066,0.2538876,-0.7104544
25.697799921035767,1.19,-2.52,11.83,-0.7870275,0.2311549,-0.6683393
25.717999935150146,-0.98,0.63,6.23,-0.750416,0.221344,-0.6499138
25.737600088119507,-2.87,2.24,0.98,-0.750416,0.221344,-0.6499138
25.757200002670288,-3.85,1.96,-2.1,-0.7008828,0.1947827,-0.5460616
25.77679991722107,-2.03,1.12,-3.01,-0.7377336,0.2129688,-0.5331399
25.79800009727478,-1.4,1.26,-1.26,-0.7377336,0.2129688,-0.5331399
25.81760001182556,-0.91,2.03,2.66,-0.7867882,0.2187118,-0.5415151
25.837199926376343,-0.63,1.47,7.07,-0.782481,0.2459909,-0.5532403
25.856800079345703,0.98,0.0,9.87,-0.782481,0.2459909,-0.5532403
25.878000020980835,1.4,-2.24,10.85,-0.7370157,0.2349836,-0.6087558
25.897599935531616,0.77,-4.97,10.29,-0.728162,0.2536483,-0.6144988
25.917200088500977,3.01,-7.0,6.93,-0.728162,0.2536483,-0.6144988
25.936800003051758,4.69,-8.19,2.38,-0.7085401,0.2376158,-0.6195239
25.957000017166138,5.74,-8.75,-2.03,-0.6982506,0.2481446,-0.6317277
25.97659993171692,1.68,-6.65,-5.46,-0.7161974,0.2333085,-0.589134
25.99620008468628,0.14,-4.69,-6.93,-0.7161974,0.2333085,-0.589134
26.01579999923706,0.49,-3.64,-7.84,-0.728162,0.2199083,-0.5874589
26.036999940872192,-0.21,-3.15,-7.14,-0.7724308,0.2218226,-0.5666406
26.056600093841553,-0.35,-3.78,-5.67,-0.7724308,0.2218226,-0.5666406
26.076200008392334,0.7,-5.46,-5.74,-0.8099994,0.2266084,-0.5831517
26.095799922943115,1.82,-6.37,-5.74,-0.8054528,0.1916719,-0.5740586
26.115999937057495,0.42,-6.51,-3.64,-0.8174174,0.2012436,-0.5771694
26.135600090026855,-0.84,-5.88,0.77,-0.8174174,0.2012436,-0.5771694
26.155200004577637,0.77,-5.04,5.53,-0.7863096,0.2601091,-0.564487
26.174799919128418,3.15,-5.04,9.45,-0.7820024,0.2718343,-0.5869803
26.194999933242798,3.57,-5.18,12.04,-0.8004277,0.2579555,-0.6042093
26.214600086212158,3.92,-4.83,11.41,-0.8004277,0.2579555,-0.6042093
26.23420000076294,3.43,-4.13,8.75,-0.8032992,0.2290013,-0.6080379
26.25379991531372,2.1,-1.89,5.39,-0.7681235,0.2182332,-0.5809981
26.2739999294281,-0.42,0.91,2.8,-0.7461087,0.2189511,-0.5821945
26.29360008239746,-1.54,3.71,1.12,-0.7461087,0.2189511,-0.5821945
26.313199996948242,-1.89,6.51,0.14,-0.7403657,0.2053115,-0.5508474
26.332799911499023,-3.08,8.47,1.26,-0.7676449,0.196697,-0.57023
26.354000091552734,-3.99,9.52,3.64,-0.7676449,0.196697,-0.57023
26.373600006103516,-3.08,8.89,5.6,-0.7913347,0.234505,-0.5855446
26.393199920654297,-1.12,6.79,6.79,-0.7997099,0.2340264,-0.5915269
26.412800073623657,0.91,4.55,8.12,-0.7997099,0.2340264,-0.5915269
26.433000087738037,4.76,3.22,8.33,-0.791574,0.2347443,-0.5711872
26.45260000228882,8.12,3.08,7.7,-0.7489802,0.2347443,-0.5798016
26.4721999168396,8.12,3.64,6.86,-0.7444337,0.219669,-0.6101916
26.49180006980896,4.9,5.25,6.16,-0.7444337,0.219669,-0.6101916
26.51200008392334,2.17,7.84,4.9,-0.7630984,0.2074651,-0.5987056
26.53159999847412,0.49,9.66,3.22,-0.7647734,0.2199083,-0.5920054
26.551199913024902,0.35,9.52,1.33,-0.7123687,0.2254119,-0.5683156
26.570800065994263,0.42,7.49,0.0,-0.7123687,0.2254119,-0.5683156
26.592000007629395,0.56,4.48,-0.84,-0.7212225,0.2115331,-0.561137
26.611599922180176,0.77,0.0,-1.19,-0.7341442,0.2443159,-0.5556333
26.631200075149536,1.68,-4.27,-2.17,-0.7341442,0.2443159,-0.5556333
26.650799989700317,5.81,-9.66,-1.47,-0.7394086,0.2658521,-0.5872197
26.67199993133545,6.86,-14.07,-0.07,-0.7532875,0.2409658,-0.6142595
26.69160008430481,3.99,-14.63,1.54,-0.7532875,0.2409658,-0.6142595
26.71119999885559,4.2,-12.39,2.03,-0.7645341,0.2395301,-0.6326849
26.730799913406372,5.53,-8.89,2.66,-0.8090423,0.2337871,-0.6128238
26.750999927520752,3.71,-4.06,4.83,-0.8135887,0.2388122,-0.6367528
26.770600080490112,0.0,1.26,6.79,-0.8135887,0.2388122,-0.6367528
26.790199995040894,-0.84,6.3,7.49,-0.8085636,0.2404873,-0.6219168
26.809799909591675,-0.49,9.73,7.56,-0.7822417,0.2395301,-0.5865018
26.829999923706055,-2.8,10.57,8.19,-0.7592697,0.2251727,-0.5872197
26.849600076675415,-4.76,10.5,8.05,-0.7592697,0.2251727,-0.5872197
26.869199991226196,-4.69,9.8,7.98,-0.750416,0.2424016,-0.5888947
26.888799905776978,-4.13,8.4,7.98,-0.7279226,0.2407265,-0.585066
26.91000008583069,-3.36,5.88,7.63,-0.7279226,0.2407265,-0.585066
26.92960000038147,-0.49,2.87,6.09,-0.7123687,0.2526911,-0.5831517
26.94919991493225,1.75,-0.42,3.99,-0.6939434,0.2555626,-0.5731015
26.96880006790161,3.57,-3.43,1.54,-0.6939434,0.2555626,-0.5731015
26.98900008201599,4.76,-6.02,-1.19,-0.6841324,0.2507768,-0.589134
27.008599996566772,4.55,-8.26,-3.64,-0.6949005,0.2529304,-0.5951162
27.028199911117554,3.99,-10.36,-5.32,-0.7090187,0.2364193,-0.5910483
27.047800064086914,2.24,-12.04,-6.72,-0.7090187,0.2364193,-0.5910483
27.068000078201294,2.38,-12.6,-7.07,-0.7212225,0.2395301,-0.6118666
27.087599992752075,4.69,-13.09,-7.35,-0.7511339,0.2505375,-0.6123452
27.107199907302856,6.16,-13.93,-7.28,-0.7855917,0.2278049,-0.5963127
27.126800060272217,4.48,-14.21,-5.53,-0.7855917,0.2278049,-0.5963127
27.14800000190735,2.24,-13.86,-3.43,-0.7674056,0.2376158,-0.5771694
27.16759991645813,3.22,-14.28,-2.38,-0.7750629,0.2385729,-0.5783659
27.18720006942749,4.76,-15.54,-0.63,-0.7750629,0.2385729,-0.5783659
27.20679998397827,4.83,-17.290001,1.82,-0.7846345,0.2421623,-0.5716658
27.22699999809265,6.72,-19.040001,2.59,-0.7891811,0.2656128,-0.5848268
27.246599912643433,8.12,-20.09,1.82,-0.8119137,0.2730308,-0.5941591
27.266200065612793,6.44,-19.25,0.35,-0.8119137,0.2730308,-0.5941591
27.285799980163574,2.1,-15.68,-1.4,-0.8066493,0.2517339,-0.596552
27.305999994277954,-2.59,-8.4,-4.2,-0.8028207,0.2354622,-0.5927233
27.325599908828735,-3.99,1.26,-8.33,-0.7846345,0.1854504,-0.5654442
27.345200061798096,-6.58,12.81,-11.55,-0.7846345,0.1854504,-0.5654442
27.364799976348877,-14.35,26.18,-11.9,-0.7664485,0.1277813,-0.5709479
27.384999990463257,-19.389999,37.170002,-9.8,-0.7654913,0.0942806,-0.6077987
27.404599905014038,-16.17,45.220001,-7.21,-0.757834,0.2474267,-0.5687943
27.4242000579834,-6.37,46.34,-4.34,-0.757834,0.2474267,-0.5687943
27.44379997253418,-1.82,42.630001,-0.14,-0.7482624,0.2766202,-0.6274205
27.46499991416931,1.33,37.52,1.47,-0.7999492,0.3096423,-0.6616391
27.484600067138672,4.69,29.540001,0.98,-0.7999492,0.3096423,-0.6616391
27.504199981689453,1.96,21.700001,0.07,-0.8202888,0.2519732,-0.6578104
27.523799896240234,-1.89,13.79,-0.63,-0.7812845,0.2167975,-0.6587676
27.545000076293945,-0.98,5.32,-2.8,-0.7185903,0.221344,-0.6085166
27.564599990844727,4.97,-3.5,-5.32,-0.659964,0.2242155,-0.5386436
27.584199905395508,2.1,-10.57,-5.11,-0.6659463,0.1722894,-0.530747
27.603800058364868,0.42,-15.82,-3.71,-0.6659463,0.1722894,-0.530747
27.624000072479248,4.34,-18.76,-2.03,-0.7068651,0.1531461,-0.5707086
27.64359998703003,3.71,-21.559999,2.31,-0.7630984,0.2220619,-0.5783659
27.66319990158081,3.01,-22.4,5.81,-0.8011456,0.2940884,-0.6317277
27.68280005455017,1.82,-18.83,6.02,-0.8011456,0.2940884,-0.6317277
27.703999996185303,1.05,-12.46,4.27,-0.7937276,0.2701593,-0.6580497
27.723599910736084,-1.82,-4.9,2.73,-0.7855917,0.1569748,-0.690354
27.743200063705444,-7.77,3.08,1.75,-0.7855917,0.1569748,-0.690354
27.762799978256226,-12.81,13.440001,0.84,-0.7855917,0.1679821,-0.6537425
27.782999992370605,-13.65,22.75,1.75,-0.7875061,0.1849718,-0.6365136
27.802599906921387,-14.07,29.33,6.16,-0.8068886,0.2000471,-0.6276598
27.822200059890747,-13.51,32.48,12.81,-0.8068886,0.2000471,-0.6276598
27.84179997444153,-11.69,32.27,20.58,-0.8176567,0.2223012,-0.6283777
27.861999988555908,-8.82,30.030001,26.530001,-0.7872668,0.2390515,-0.63771
27.88159990310669,-4.41,26.67,31.99,-0.7018399,0.2500589,-0.6257455
27.90120005607605,0.77,22.82,35.209999,-0.7018399,0.2500589,-0.6257455
27.92079997062683,5.25,19.809999,36.119999,-0.6683393,0.2632199,-0.6343599
27.941999912261963,6.16,16.940001,34.790001,-0.6166524,0.2603484,-0.6609212
27.961600065231323,4.55,14.14,31.219999,-0.6166524,0.2603484,-0.6609212
27.981199979782104,7.28,12.74,23.309999,-0.6161738,0.2120116,-0.6355564
28.000799894332886,9.03,10.71,14.14,-0.568555,0.2376158,-0.6637927
28.020999908447266,7.77,7.0,7.63,-0.6006199,0.2254119,-0.6759965
28.040600061416626,5.67,1.26,5.95,-0.6006199,0.2254119,-0.6759965
28.060199975967407,8.4,-6.02,5.67,-0.6250276,0.2577162,-0.6826967
28.07979989051819,12.11,-15.82,6.3,-0.628617,0.2919348,-0.6803038
28.09999990463257,14.91,-27.93,6.44,-0.6077987,0.2916955,-0.6939434
28.11960005760193,22.049999,-41.580002,6.02,-0.6077987,0.2916955,-0.6939434
28.13919997215271,25.48,-53.200001,6.23,-0.7071043,0.354629,-0.6635534
28.15879988670349,18.48,-62.93,9.31,-0.744673,0.2632199,-0.656614
28.17899990081787,20.860001,-69.300003,11.9,-0.7382122,0.3182568,-0.6101916
28.19860005378723,34.650002,-73.639999,13.72,-0.7382122,0.3182568,-0.6101916
28.218199968338013,35.91,-75.879997,20.860001,-0.7523303,0.2357014,-0.5771694
28.237799882888794,23.940001,-70.840004,32.619999,-0.7674056,0.2316335,-0.5774087
28.259000062942505,14.0,-57.189999,41.790001,-0.744673,0.2438373,-0.5295506
28.278599977493286,-4.83,-40.950001,45.290001,-0.7607055,0.2359407,-0.5247647
28.298199892044067,-15.05,-23.1,46.27,-0.7760201,0.2218226,-0.4996392
28.317800045013428,-14.42,-2.94,39.759998,-0.7910954,0.2555626,-0.6209597
28.33899998664856,-9.38,21.91,21.629999,-0.7910954,0.2555626,-0.6209597
28.35859990119934,-16.66,46.759998,2.94,-0.7659699,0.2715951,-0.6482388
28.3782000541687,-26.67,63.139999,-12.6,-0.7659699,0.2715951,-0.6482388
28.397799968719482,-28.84,72.309998,-23.940001,-0.6956184,0.3328535,-0.6322063
28.417999982833862,-21.42,74.620003,-27.860001,-0.6831753,0.3366822,-0.6283777
28.437599897384644,-9.31,68.669998,-27.23,-0.7295977,0.3565433,-0.6037307
28.457200050354004,0.21,57.610001,-25.200001,-0.7563982,0.4472345,-0.5608976
28.476799964904785,5.67,43.259998,-20.860001,-0.7556804,0.4120588,-0.5680764
28.497999906539917,4.62,26.389999,-14.42,-0.7284012,0.3747294,-0.6276598
28.517600059509277,4.06,9.59,-9.24,-0.7284012,0.3747294,-0.6276598
28.53719997406006,8.82,-4.62,-5.11,-0.6824574,0.3084459,-0.6295741
28.55679988861084,10.43,-14.84,-1.47,-0.6546997,0.3216069,-0.6293348
28.57699990272522,7.42,-20.02,1.96,-0.6630748,0.2658521,-0.6257455
28.59660005569458,9.31,-20.299999,3.36,-0.6630748,0.2658521,-0.6257455
28.61619997024536,11.55,-17.15,3.01,-0.6602034,0.227087,-0.6195239
28.635799884796143,10.78,-13.51,2.38,-0.6738429,0.2562804,-0.6267026
28.655999898910522,6.72,-9.8,1.89,-0.6733644,0.2522125,-0.6384279
28.675600051879883,4.62,-8.19,0.07,-0.6764751,0.2569983,-0.6326849
28.695199966430664,3.43,-5.95,-1.19,-0.6769537,0.2857132,-0.6592462
28.714799880981445,0.63,-4.55,-1.47,-0.6800645,0.2933705,-0.6513496
28.734999895095825,-2.31,-2.45,-1.26,-0.7023185,0.2703986,-0.6556568
28.754600048065186,-2.66,0.0,-1.4,-0.7219404,0.2763809,-0.656614
28.774199962615967,-2.52,1.26,-1.26,-0.7219404,0.2763809,-0.656614
28.793799877166748,-2.52,1.61,-0.98,-0.7164367,0.2744666,-0.6348385
28.81500005722046,-3.22,1.33,-0.35,-0.6987292,0.2826025,-0.6527853
28.83459997177124,-1.89,1.26,0.42,-0.6848503,0.2531697,-0.6350778
28.85419988632202,-0.98,0.84,1.89,-0.6970541,0.2718343,-0.6348385
28.873800039291382,1.33,0.42,1.89,-0.6886789,0.2794917,-0.6384279
28.89400005340576,1.4,-0.49,1.47,-0.6886789,0.2794917,-0.6384279
28.913599967956543,-2.59,-0.7,1.54,-0.6901147,0.2593912,-0.6386672
28.933199882507324,-4.2,-1.12,0.91,-0.6764751,0.2754237,-0.6444101
28.952800035476685,-2.73,-2.31,-0.7,-0.6719286,0.2885847,-0.6159346
28.973000049591064,-2.03,-4.62,-1.82,-0.6690571,0.275663,-0.6293348
28.992599964141846,-0.35,-7.0,-3.01,-0.6690571,0.275663,-0.6293348
29.012199878692627,0.7,-8.47,-4.48,-0.6999256,0.2840382,-0.6403422
29.031800031661987,2.8,-9.45,-6.51,-0.7374943,0.3050958,-0.6573318
29.05299997329712,2.38,-10.92,-7.77,-0.7374943,0.3050958,-0.6573318
29.0725998878479,1.54,-11.55,-7.42,-0.7418015,0.3029422,-0.673125
29.09220004081726,0.49,-10.78,-6.02,-0.7657306,0.30366,-0.6666642
29.111799955368042,2.03,-8.33,-4.2,-0.7657306,0.30366,-0.6666642
29.132999897003174,2.45,-4.97,-1.96,-0.7621412,0.3038993,-0.6405815
29.152600049972534,0.56,-0.63,1.26,-0.7453909,0.268245,-0.6353171
29.172199964523315,0.56,3.5,3.36,-0.7453909,0.268245,-0.6353171
29.191799879074097,2.66,5.39,3.15,-0.7374943,0.2849954,-0.6211989
29.211999893188477,1.12,4.76,2.38,-0.7205046,0.2617841,-0.6173703
29.231600046157837,-2.52,2.66,1.96,-0.6893968,0.2574769,-0.6159346
29.251199960708618,-4.41,0.07,-0.07,-0.6893968,0.2574769,-0.6159346
29.2707998752594,-0.56,-3.22,-3.5,-0.690354,0.2670485,-0.6135417
29.29099988937378,2.45,-7.07,-5.25,-0.6889183,0.2483839,-0.6075593
29.31060004234314,0.63,-9.03,-4.13,-0.7396479,0.2593912,-0.6216775
29.33019995689392,-0.35,-8.68,-3.15,-0.7396479,0.2593912,-0.6216775
29.349799871444702,2.03,-7.91,-3.29,-0.7516124,0.2636985,-0.615456
29.371000051498413,3.85,-6.93,-3.36,-0.7437159,0.2658521,-0.6233526
29.390599966049194,2.94,-6.09,-2.66,-0.7398872,0.2424016,-0.6149774
29.410199880599976,0.0,-4.55,-1.61,-0.7391693,0.2431195,-0.6290956
29.429800033569336,-2.17,-2.52,-0.84,-0.7427587,0.2481446,-0.6204811
29.450000047683716,-1.54,-0.77,-0.63,-0.7470659,0.2467088,-0.6058843
29.469599962234497,0.42,0.42,-0.28,-0.7470659,0.2467088,-0.6058843
29.48919987678528,-0.07,1.19,0.84,-0.7513731,0.2601091,-0.6135417
29.50880002975464,-1.33,1.54,1.54,-0.7473052,0.2560412,-0.6133023
29.5485999584198,0.07,0.35,0.7,-0.7473052,0.2560412,-0.6133023
29.56819987297058,0.14,-0.98,0.14,-0.7348621,0.2548447,-0.6092344
29.58780002593994,0.0,-2.24,-0.14,-0.7238547,0.2536483,-0.6085166
29.608999967575073,-0.21,-3.08,-0.21,-0.7238547,0.2536483,-0.6085166
29.628599882125854,-0.63,-2.17,0.28,-0.7319906,0.2433588,-0.6180882
29.648200035095215,-1.4,-0.42,1.05,-0.7554411,0.2538876,-0.6173703
29.667799949645996,-1.75,0.35,1.61,-0.7461087,0.2543661,-0.6123452
29.687999963760376,-1.19,0.0,2.03,-0.7461087,0.2543661,-0.6123452
29.707599878311157,-1.89,-0.63,2.24,-0.7267262,0.2495803,-0.6123452
29.727200031280518,-1.75,-0.77,1.33,-0.7274441,0.2505375,-0.598227
29.7467999458313,-0.91,-1.26,0.0,-0.7221797,0.2459909,-0.5979877
29.76699995994568,-0.63,-2.03,-0.91,-0.7221797,0.2459909,-0.5979877
29.78659987449646,-0.07,-3.01,-0.7,-0.7083008,0.2474267,-0.5972699
29.80620002746582,-0.28,-3.71,0.07,-0.7377336,0.2589127,-0.6128238
29.8257999420166,0.35,-3.64,0.07,-0.7468266,0.2569983,-0.6140202
29.84599995613098,0.56,-3.43,-0.49,-0.7468266,0.2569983,-0.6140202
29.865599870681763,0.07,-3.71,-0.7,-0.7468266,0.2512553,-0.6178489
29.885200023651123,-0.49,-4.55,-1.05,-0.7341442,0.2615448,-0.6106701
29.904799938201904,-0.84,-5.04,-1.12,-0.7437159,0.2543661,-0.6013378
29.925999879837036,-2.03,-5.39,-1.26,-0.7437159,0.2543661,-0.6013378
29.945600032806396,-2.1,-5.25,-1.4,-0.7559196,0.2524518,-0.6087558
29.965199947357178,-1.19,-4.34,-0.7,-0.7654913,0.2565197,-0.6080379
29.984800100326538,-0.35,-3.22,0.21,-0.7633377,0.2634592,-0.6092344
30.00600004196167,0.21,-2.31,1.19,-0.756159,0.2572376,-0.6037307
30.02559995651245,-0.56,-1.96,2.38,-0.756159,0.2572376,-0.6037307
30.045199871063232,-0.35,-1.33,2.87,-0.752091,0.2524518,-0.6025342
30.064800024032593,0.56,-1.19,2.87,-0.7532875,0.2536483,-0.6058843
30.085000038146973,0.98,-0.84,2.38,-0.7492195,0.2529304,-0.5984663
30.104599952697754,1.12,-0.91,1.68,-0.7492195,0.2529304,-0.5984663
30.124200105667114,-0.28,-1.12,1.4,-0.7334263,0.2510161,-0.5941591
30.143800020217896,-1.33,-1.4,1.33,-0.729837,0.2526911,-0.590809
30.164999961853027,-0.07,-1.96,0.63,-0.729837,0.2526911,-0.590809
30.18459987640381,0.84,-2.24,-0.21,-0.7377336,0.2562804,-0.5922448
30.20420002937317,0.28,-2.45,-0.42,-0.7501767,0.2524518,-0.6001413
30.22379994392395,-0.14,-2.59,-0.35,-0.7532875,0.2603484,-0.5994235
30.24399995803833,-0.14,-2.24,0.07,-0.7532875,0.2603484,-0.5994235
30.26359987258911,0.28,-1.54,0.63,-0.7516124,0.2524518,-0.5929626
30.28320002555847,0.7,-1.19,0.77,-0.7465873,0.2471874,-0.5829124
30.302799940109253,0.49,-0.91,1.12,-0.7439551,0.2512553,-0.594877
30.322999954223633,0.63,-0.42,0.91,-0.7439551,0.2512553,-0.594877
30.342600107192993,1.19,-0.42,0.35,-0.7465873,0.2558019,-0.6008592
30.362200021743774,1.82,-0.7,0.56,-0.7528089,0.2491017,-0.5912876
30.381799936294556,0.84,-1.19,1.05,-0.7480231,0.2593912,-0.6003807
30.401999950408936,0.56,-1.82,1.4,-0.7480231,0.2593912,-0.6003807
30.421600103378296,1.47,-2.03,1.19,-0.7461087,0.249341,-0.5970306
30.441200017929077,1.26,-2.03,0.63,-0.7518517,0.2538876,-0.5953555
30.46079993247986,0.63,-1.75,0.28,-0.7499374,0.2464695,-0.5934412
30.48199987411499,1.12,-1.68,0.0,-0.7499374,0.2464695,-0.5934412
30.50160002708435,1.47,-1.61,0.07,-0.7477838,0.2577162,-0.5910483
30.521199941635132,0.7,-1.47,0.35,-0.7506553,0.2450338,-0.6044486
30.540800094604492,0.56,-0.77,0.63,-0.7506553,0.2450338,-0.6044486
30.560999870300293,1.68,0.28,0.56,-0.7623805,0.2572376,-0.6001413
30.580600023269653,1.61,0.63,0.56,-0.7547232,0.2510161,-0.6032521
30.600199937820435,0.77,0.14,0.98,-0.7453909,0.2498196,-0.5989449
30.619800090789795,0.77,-0.21,0.84,-0.7453909,0.2498196,-0.5989449
30.640000104904175,2.03,-0.7,0.35,-0.7401265,0.2491017,-0.6008592
30.659600019454956,1.82,-0.91,0.35,-0.7379729,0.2447945,-0.6042093
30.679199934005737,1.61,-0.84,0.63,-0.7482624,0.2526911,-0.6018164
30.698800086975098,1.4,-0.49,1.47,-0.7482624,0.2526911,-0.6018164
30.72000002861023,1.19,-0.07,1.96,-0.7511339,0.2617841,-0.6202418
30.73959994316101,1.47,0.28,2.17,-0.7607055,0.2541268,-0.6156952
30.75920009613037,1.54,0.56,2.17,-0.7607055,0.2541268,-0.6156952
30.778800010681152,1.47,0.35,1.89,-0.7499374,0.2598698,-0.6252669
30.799999952316284,1.89,-0.14,1.26,-0.7499374,0.2598698,-0.6252669
30.819600105285645,2.38,-0.77,0.63,-0.7382122,0.2555626,-0.6202418
30.839200019836426,2.1,-1.4,0.7,-0.7422801,0.2512553,-0.6133023
30.858799934387207,2.87,-1.68,0.56,-0.7453909,0.2409658,-0.6073201
30.878999948501587,3.08,-1.61,0.7,-0.7403657,0.2471874,-0.6094737
30.898600101470947,1.68,-1.26,1.19,-0.7360585,0.2385729,-0.6070808
30.91820001602173,0.56,-1.05,1.82,-0.7398872,0.247666,-0.6061236
30.93779993057251,0.56,-1.26,1.82,-0.7394086,0.2548447,-0.609713
30.95899987220764,1.61,-1.54,1.96,-0.7394086,0.2548447,-0.609713
30.978600025177002,2.45,-2.03,2.1,-0.7334263,0.2491017,-0.6010985
30.998199939727783,1.89,-2.24,2.24,-0.7398872,0.2452731,-0.6010985
31.017800092697144,1.19,-1.96,2.38,-0.7398872,0.2452731,-0.6010985
31.038000106811523,1.82,-2.03,2.1,-0.7456302,0.2479053,-0.5994235
31.057600021362305,1.61,-2.66,2.03,-0.7513731,0.2483839,-0.6010985
31.077199935913086,1.4,-2.31,2.66,-0.7451516,0.2586734,-0.6054058
31.096800088882446,1.61,-2.1,2.59,-0.7451516,0.2586734,-0.6054058
31.117000102996826,1.82,-2.17,2.17,-0.744673,0.2474267,-0.6075593
31.136600017547607,1.61,-2.38,1.89,-0.7353406,0.2407265,-0.613063
31.15619993209839,2.31,-2.45,1.54,-0.73558,0.2531697,-0.6087558
31.17580008506775,2.87,-2.38,0.63,-0.73558,0.2531697,-0.6087558
31.19600009918213,1.61,-2.59,0.14,-0.731512,0.2455124,-0.6070808
31.21560001373291,0.49,-2.31,-0.42,-0.7556804,0.2321121,-0.6128238
31.23519992828369,1.4,-2.03,-1.96,-0.7580733,0.2323514,-0.5994235
31.25480008125305,1.82,-2.03,-3.22,-0.7580733,0.2323514,-0.5994235
31.276000022888184,1.54,-2.38,-2.87,-0.7245726,0.2316335,-0.5934412
31.295599937438965,2.17,-3.29,-1.05,-0.7044722,0.256759,-0.5936805
31.315200090408325,4.55,-5.04,1.05,-0.7044722,0.256759,-0.5936805
31.334800004959106,6.65,-8.19,2.24,-0.7334263,0.2969599,-0.6499138
31.355000019073486,7.14,-10.71,1.75,-0.7870275,0.2778166,-0.673125
31.374599933624268,6.09,-10.99,0.0,-0.8198103,0.2502982,-0.6815002
31.394200086593628,5.46,-9.03,-3.85,-0.8198103,0.2502982,-0.6815002
31.41380000114441,3.64,-5.32,-8.12,-0.7987527,0.2002864,-0.613063
31.43400001525879,1.19,-0.42,-10.43,-0.776738,0.1904755,-0.5711872
31.45359992980957,-1.26,3.5,-9.03,-0.7671663,0.1789895,-0.5489331
31.47320008277893,-3.92,5.81,-5.46,-0.7671663,0.1789895,-0.5489331
31.492799997329712,-3.08,5.81,-0.49,-0.7602269,0.19909,-0.5305077
31.513999938964844,-0.63,2.8,5.18,-0.7681235,0.2603484,-0.5534796
31.533600091934204,2.38,-2.03,10.15,-0.7681235,0.2603484,-0.5534796
31.553200006484985,3.5,-7.21,13.37,-0.7822417,0.2766202,-0.6049272
31.572799921035767,4.97,-11.13,13.93,-0.7977956,0.2505375,-0.6092344
31.592999935150146,8.19,-11.34,12.95,-0.7700378,0.2462302,-0.5805195
31.612600088119507,6.02,-8.4,10.22,-0.7700378,0.2462302,-0.5805195
31.632200002670288,0.7,-2.59,7.77,-0.7032757,0.1971756,-0.5745372
31.65179991722107,-3.43,3.43,4.76,-0.697772,0.2031579,-0.5917662
31.67300009727478,-2.8,8.68,0.84,-0.697772,0.2031579,-0.5917662
31.69260001182556,-2.31,12.25,-2.59,-0.7482624,0.2234976,-0.6003807
31.712199926376343,-4.69,13.65,-3.99,-0.7733879,0.2290013,-0.6068415
31.731800079345703,-5.25,12.39,-4.55,-0.7733879,0.2290013,-0.6068415
31.752000093460083,-1.33,8.47,-4.13,-0.76932,0.243598,-0.6173703
31.771600008010864,2.38,3.5,-3.43,-0.7623805,0.2622627,-0.5936805
31.791199922561646,6.3,-1.68,-3.71,-0.7453909,0.2357014,-0.5932019
31.810800075531006,15.05,-6.51,-5.74,-0.7453909,0.2357014,-0.5932019
31.832000017166138,26.6,-9.8,-7.84,-0.7343835,0.2002864,-0.5661621
31.85159993171692,31.290001,-10.22,-9.17,-0.7248118,0.2368979,-0.6015771
31.87120008468628,30.799999,-8.96,-8.47,-0.7248118,0.2368979,-0.6015771
31.89079999923706,33.389999,-9.52,-7.98,-0.7083008,0.2122509,-0.5819552
31.91100001335144,40.880001,-10.71,-9.17,-0.7535267,0.2002864,-0.6087558
31.93059992790222,46.900002,-12.6,-10.15,-0.7724308,0.1823396,-0.6293348
31.950200080871582,45.849998,-14.0,-10.64,-0.7724308,0.1823396,-0.6293348
31.969799995422363,39.619999,-14.77,-10.08,-0.784156,0.1904755,-0.6027736
31.990000009536743,32.48,-16.1,-9.03,-0.7492195,0.1296956,-0.6006199
32.009599924087524,20.09,-16.450001,-8.12,-0.8066493,0.1048094,-0.5867411
32.029200077056885,-2.1,-15.68,-5.18,-0.8066493,0.1048094,-0.5867411
32.048799991607666,-19.6,-11.97,-2.59,-0.816221,0.0586262,-0.6195239
32.0699999332428,-13.51,-5.74,-5.46,-0.8169388,0.1225169,-0.6271812
32.08960008621216,-8.05,-1.05,-8.26,-0.8169388,0.1225169,-0.6271812
32.10920000076294,-13.51,3.64,-7.84,-0.798992,0.1289778,-0.5989449
32.12879991531372,-20.860001,8.05,-5.11,-0.785831,0.0837518,-0.6085166
32.1489999294281,-20.860001,10.85,-2.24,-0.7860703,0.1277813,-0.5807588
32.16860008239746,-17.99,11.9,-1.4,-0.7860703,0.1277813,-0.5807588
32.18819999694824,-14.21,12.46,-1.89,-0.7875061,0.1883219,-0.5716658
32.20779991149902,-15.68,13.23,-0.84,-0.8032992,0.1519497,-0.609713
32.2279999256134,-17.5,14.35,1.75,-0.8078458,0.0942806,-0.6350778
32.247600078582764,-19.74,16.1,4.27,-0.8078458,0.0942806,-0.6350778
32.267199993133545,-19.809999,19.32,5.74,-0.8317748,0.161282,-0.613063
32.286799907684326,-17.5,22.120001,5.95,-0.7638163,0.1313707,-0.6125845
32.306999921798706,-13.51,22.75,6.23,-0.7401265,0.1691786,-0.5943984
32.326600074768066,-11.48,21.559999,9.17,-0.7401265,0.1691786,-0.5943984
32.34619998931885,-13.65,19.040001,12.74,-0.728162,0.1684607,-0.5984663
32.36579990386963,-17.290001,18.83,16.309999,-0.7190689,0.1368743,-0.6479995
32.38700008392334,-7.07,15.68,17.92,-0.7190689,0.1368743,-0.6479995
32.40659999847412,-4.62,10.08,20.370001,-0.7391693,0.2115331,-0.5932019
32.4261999130249,-5.25,6.09,23.450001,-0.7516124,0.2227798,-0.6314885
32.44580006599426,-10.99,2.87,25.34,-0.7516124,0.2227798,-0.6314885
32.46600008010864,-9.45,2.66,26.67,-0.7425194,0.2546054,-0.6575711
32.485599994659424,-8.19,3.43,26.950001,-0.7547232,0.1959792,-0.6738429
32.505199909210205,-12.95,7.07,25.9,-0.7528089,0.2574769,-0.6882004
32.524800062179565,-23.1,13.02,23.030001,-0.7528089,0.2574769,-0.6882004
32.5460000038147,-23.030001,15.82,19.74,-0.6815002,0.1995685,-0.6314885
32.56559991836548,-7.0,13.23,12.95,-0.6144988,0.2309156,-0.6077987
32.58520007133484,6.44,9.52,2.87,-0.6144988,0.2309156,-0.6077987
32.60479998588562,9.24,3.57,-3.08,-0.596552,0.260827,-0.628617
32.62599992752075,7.98,-2.8,-7.98,-0.6269419,0.189279,-0.626224
32.64560008049011,5.67,-8.96,-10.78,-0.6269419,0.189279,-0.626224
32.665199995040894,5.32,-14.28,-11.9,-0.6580497,0.2179939,-0.6489567
32.684799909591675,6.72,-17.780001,-11.69,-0.7267262,0.2117724,-0.6365136
32.704999923706055,7.21,-20.790001,-10.99,-0.7159581,0.2227798,-0.630292
32.724600076675415,6.44,-23.1,-9.31,-0.7159581,0.2227798,-0.630292
32.744199991226196,3.36,-23.870001,-7.14,-0.7164367,0.2543661,-0.6324456
32.76379990577698,7.63,-24.85,-7.14,-0.7408443,0.2596305,-0.6322063
32.78399991989136,9.03,-21.210001,-10.22,-0.7542446,0.3017457,-0.6369921
32.80360007286072,8.82,-17.57,-9.31,-0.7542446,0.3017457,-0.6369921
32.8231999874115,7.14,-13.93,-8.54,-0.7571161,0.1952613,-0.6235919
32.84279990196228,4.9,-9.94,-7.84,-0.778413,0.2488624,-0.6092344
32.86299991607666,6.44,-5.32,-8.61,-0.778413,0.2488624,-0.6092344
32.88260006904602,6.3,-2.73,-8.96,-0.778413,0.2488624,-0.6092344
32.9021999835968,6.02,-4.06,-9.87,-0.7920526,0.2261298,-0.6247883
32.92179989814758,12.39,-8.05,-11.06,-0.746348,0.1718108,-0.6054058
32.943000078201294,13.51,-15.05,-10.36,-0.7295977,0.172768,-0.6200025
32.962599992752075,21.42,-23.66,-12.18,-0.6795859,0.180186,-0.5429509
32.982199907302856,33.32,-37.939999,-17.99,-0.7102151,0.2455124,-0.5388829
33.00180006027222,36.119999,-50.330002,-17.85,-0.7102151,0.2455124,-0.5388829
33.0220000743866,27.299999,-58.099998,-10.43,-0.7757808,0.1325671,-0.5597012
33.04159998893738,20.23,-62.439999,-4.13,-0.8408679,0.1655892,-0.561137
33.06119990348816,15.61,-65.730003,-0.91,-0.9399343,0.2500589,-0.5896125
33.08080005645752,0.77,-65.590004,6.51,-0.9399343,0.2500589,-0.5896125
33.1010000705719,-11.06,-57.959999,13.86,-0.9930569,0.1344814,-0.5431901
33.12059998512268,-7.56,-46.060001,16.799999,-0.9803744,0.0866233,-0.5460616
33.14019989967346,-3.01,-35.139999,18.549999,-0.9554882,0.0698729,-0.5771694
33.15980005264282,0.35,-25.129999,17.08,-0.9179195,0.0983485,-0.5391222
33.180999994277954,1.96,-14.63,11.76,-0.845893,0.1014593,-0.4977249
33.200599908828735,1.05,-3.99,9.59,-0.848286,0.045226,-0.5206968
33.220200061798096,-7.21,2.24,8.26,-0.848286,0.045226,-0.5206968
33.23979997634888,-5.18,8.89,5.32,-0.8286641,0.0784874,-0.4673349
33.25999999046326,-5.95,13.16,2.94,-0.8399107,0.0964342,-0.4328771
33.27959990501404,-14.7,14.84,6.09,-0.8667113,0.2416837,-0.3642006
33.2992000579834,-17.43,11.97,10.29,-0.8667113,0.2416837,-0.3642006
33.31879997253418,-3.92,5.11,8.05,-0.8889653,0.343143,-0.3625256
33.33999991416931,8.61,-6.86,3.08,-0.8446965,0.3426644,-0.3230426
33.35960006713867,13.86,-21.91,-1.33,-0.8446965,0.3426644,-0.3230426
33.37919998168945,40.599998,-32.759998,-5.88,-0.759509,0.3661149,-0.2553233
33.398799896240234,92.260002,-41.580002,-22.120001,-0.682936,0.3235212,-0.1981328
33.418999910354614,128.660004,-49.630001,-37.099998,-0.8090423,0.0854268,-0.3524754
33.438600063323975,132.789993,-54.810001,-35.279999,-0.8090423,0.0854268,-0.3524754
33.458199977874756,92.190002,-68.529999,-17.57,-0.8920761,-0.3443395,-0.5599405
33.47779989242554,41.720001,-72.379997,-6.44,-0.9928176,-0.4280912,-0.4589598
33.49900007247925,29.120001,-75.32,-6.3,-0.8980584,-0.1639142,-0.3673114
33.51859998703003,64.959999,-82.040001,-19.530001,-0.8334499,0.1785109,-0.3716186
33.53819990158081,91.07,-86.660004,-23.73,-1.0569475,0.0167504,-0.256759
33.55780005455017,86.590004,-89.110001,-4.55,-1.0569475,0.0167504,-0.256759
33.57800006866455,61.040001,-93.099998,16.450001,-1.1246668,-0.1756395,-0.3027029
33.59759998321533,52.990002,-93.029999,24.01,-1.0349327,-0.0605406,-0.3330928
33.61719989776611,83.370003,-82.389999,21.559999,-0.9727171,0.1289778,-0.1402244
33.636800050735474,126.559998,-70.980003,18.48,-0.9669742,0.1337636,-0.1904755
33.65700006484985,159.809998,-62.510002,16.73,-1.0382828,0.174443,-0.1586498
33.676599979400635,197.610001,-66.080002,9.03,-1.0705871,0.1270634,-0.1782717
33.696199893951416,239.190002,-59.920002,-3.29,-1.1385457,0.2479053,-0.8882475
33.715800046920776,257.040009,-42.490002,-23.379999,-1.281163,-0.0191433,-0.2158403
33.73699998855591,222.040009,-11.62,-41.02,-1.281163,-0.0191433,-0.2158403
33.75659990310669,139.580002,32.759998,-45.779999,-1.0330184,-0.6630748,-0.0167504
33.77620005607605,41.509998,75.389999,-37.310001,-1.0330184,-0.6630748,-0.0167504
